"Time (s)","Gyroscope x (rad/s)","Gyroscope y (rad/s)","Gyroscope z (rad/s)","Absolute (rad/s)"
1.679462500E-2,7.652596235E-1,-2.329462767E0,-3.514898121E-1,2.477007097E0
2.676162499E-2,1.549738765E0,-2.895581007E0,-3.002015948E-1,3.297908520E0
3.672862498E-2,2.123606920E0,-2.773152351E0,-2.217578143E-1,3.499893833E0
4.669662498E-2,2.239910603E0,-2.172608614E0,-8.831151761E-3,3.120497666E0
5.666362500E-2,1.989263773E0,-1.824378014E0,3.062680364E-1,2.716491415E0
6.663162500E-2,1.496487617E0,-1.764452934E0,7.530964017E-1,2.433089299E0
7.659862499E-2,6.962937117E-1,-1.441277146E0,1.324841499E0,2.077813693E0
8.656562498E-2,3.805176616E-1,-2.382192016E-1,1.239677906E0,1.318462510E0
9.653362501E-2,6.949144006E-1,6.648433805E-1,7.346443534E-1,1.210216952E0
1.065006250E-1,1.218077183E0,1.215646863E0,6.105708480E-1,1.826008236E0
1.164686250E-1,1.612577796E0,1.590041041E0,7.316001654E-1,2.379890011E0
1.264356250E-1,1.832117558E0,1.728021502E0,7.404533029E-1,2.625068409E0
1.364026250E-1,1.849992990E0,1.712478995E0,8.144299984E-1,2.649217733E0
1.463706250E-1,1.669061780E0,1.511338592E0,8.969610929E-1,2.423726628E0
1.563376250E-1,1.381102681E0,1.155782819E0,9.570468664E-1,2.039415908E0
1.663046250E-1,1.095160961E0,6.915299296E-1,1.103148937E0,1.701331465E0
1.762726250E-1,8.546336889E-1,5.477125943E-2,1.365007639E0,1.611410713E0
1.862396250E-1,7.317972183E-1,-2.414167374E-1,1.656120896E0,1.826621371E0
1.962076250E-1,7.347584963E-1,-1.696814746E-1,1.760922432E0,1.915596425E0
2.061746250E-1,8.644906282E-1,6.864320487E-2,1.717087626E0,1.923654297E0
2.161416250E-1,9.319950938E-1,1.158762444E-2,1.864311099E0,2.084323632E0
2.261096250E-1,9.523392320E-1,-4.218221307E-1,2.084863186E0,2.330566117E0
2.360766250E-1,1.014440417E0,-9.288327694E-1,2.241236448E0,2.629631246E0
2.460446250E-1,1.068849802E0,-1.513261914E0,2.337469339E0,2.982643866E0
2.560116250E-1,8.848769665E-1,-2.247188807E0,2.240920305E0,3.294630266E0
2.659786250E-1,3.796625137E-1,-3.099170685E0,1.848309994E0,3.628395291E0
2.759466250E-1,-1.305178702E-1,-3.814430952E0,1.298846483E0,4.031615134E0
2.859136250E-1,-4.081340432E-1,-3.967174530E0,6.410702467E-1,4.039309125E0
2.958816250E-1,1.529563665E-1,-2.166017532E0,-9.456587583E-2,2.173469647E0
3.058486250E-1,1.032136917E0,1.169125080E0,-5.000686049E-1,1.637751104E0
3.158156250E-1,1.686814785E0,3.236734152E0,-6.737865210E-1,3.711573839E0
3.257836250E-1,1.905128837E0,4.255784988E0,-8.833951354E-1,4.745693702E0
3.357506250E-1,1.883342028E0,4.402661800E0,-1.043185949E0,4.900882068E0
3.457176250E-1,2.143715620E0,3.959453106E0,-1.135527849E0,4.643512577E0
3.556856250E-1,2.549113274E0,3.046042442E0,-1.229432344E0,4.157866873E0
3.656526250E-1,2.918302298E0,1.776805758E0,-1.196382523E0,3.620063279E0
3.756206250E-1,2.688697815E0,1.689279079E0,-7.357012630E-1,3.259450275E0
3.855876250E-1,2.144577265E0,1.114903927E0,2.957359254E-1,2.435093868E0
3.955546250E-1,6.831779480E-1,2.781658173E-1,2.762142658E0,2.858940432E0
4.055226250E-1,-1.094425321E0,-9.653077126E-1,5.305325985E0,5.502369450E0
4.154896250E-1,-1.954137564E0,-1.422873378E0,6.343156815E0,6.788141177E0
4.254576250E-1,-1.363964081E0,6.794713736E-1,6.058124065E0,6.246834923E0
4.354246250E-1,-6.277772784E-1,2.626621008E0,5.237166882E0,5.892466307E0
4.453916250E-1,-2.179330140E-1,3.455483437E0,4.449074745E0,5.637563895E0
4.553596250E-1,-2.150868066E-2,3.337930441E0,3.738462687E0,5.011820578E0
4.653266250E-1,7.525753975E-2,2.631025791E0,3.096066713E0,4.063691610E0
4.752946250E-1,1.880123913E-1,1.556793571E0,2.459636211E0,2.916978775E0
4.852616250E-1,3.109676242E-1,3.601146936E-1,1.821013212E0,1.882145737E0
4.952286250E-1,3.531352282E-1,-7.520717382E-1,1.319152117E0,1.558999261E0
5.051966250E-1,2.827840745E-1,-1.684893489E0,1.035237551E0,1.997636025E0
5.151636250E-1,9.295529127E-2,-2.336565495E0,9.915257096E-1,2.539941383E0
5.251316250E-1,-1.938445121E-1,-2.594198942E0,1.112741113E0,2.829423374E0
5.350986250E-1,-4.886876047E-1,-2.436483622E0,1.296556711E0,2.802914076E0
5.450656250E-1,-7.244657874E-1,-1.805923939E0,1.401238084E0,2.397849061E0
5.550336250E-1,-9.436950088E-1,-7.413397431E-1,1.357336402E0,1.811769023E0
5.650006250E-1,-1.003657818E0,6.375518441E-1,1.186564445E0,1.679802534E0
5.749676250E-1,-8.929011822E-1,2.055918694E0,9.330864549E-1,2.427905379E0
5.849356250E-1,-6.052656770E-1,3.140975475E0,6.474730968E-1,3.263632162E0
5.949026250E-1,9.391217493E-3,3.440189600E0,2.826375365E-1,3.451793252E0
6.048706250E-1,8.184467554E-1,2.970160723E0,-1.234370098E-1,3.083333668E0
6.148376250E-1,1.461531520E0,2.253084898E0,-4.458189905E-1,2.722355692E0
6.248046250E-1,1.723604083E0,1.738825083E0,-6.685298085E-1,2.537962925E0
6.347726250E-1,1.728559494E0,1.436914086E0,-7.926616669E-1,2.383474886E0
6.447396250E-1,1.563724995E0,1.290002346E0,-8.717812896E-1,2.206659133E0
6.547076250E-1,1.338218689E0,1.341218829E0,-9.418066740E-1,2.115820649E0
6.646746250E-1,1.157220602E0,1.459954023E0,-1.109822989E0,2.168486186E0
6.746416250E-1,1.019434452E0,1.644721031E0,-1.284647346E0,2.322643467E0
6.846096250E-1,1.051208973E0,1.633334994E0,-1.297923684E0,2.336114166E0
6.945766250E-1,1.369237900E0,1.095281363E0,-1.076402187E0,2.057448750E0
7.045446250E-1,1.686936617E0,3.637411296E-1,-6.926406622E-1,1.859519789E0
7.145116250E-1,1.825690866E0,-2.725328207E-1,-2.551510632E-1,1.863470778E0
7.244786250E-1,1.757040262E0,-7.333449125E-1,1.688039601E-1,1.911407864E0
7.344466250E-1,1.548289061E0,-1.075674534E0,4.948188663E-1,1.949133251E0
7.444136250E-1,1.288009286E0,-1.357972264E0,6.845770478E-1,1.992913025E0
7.543816250E-1,1.059898019E0,-1.561677337E0,7.589747906E-1,2.034272019E0
7.643486250E-1,8.847586513E-1,-1.619649053E0,8.036266565E-1,2.012927402E0
7.743166250E-1,7.775062919E-1,-1.500514388E0,9.050180316E-1,1.917059493E0
7.842836250E-1,7.200347781E-1,-1.238224149E0,1.012932777E0,1.754332333E0
7.942506250E-1,6.710079312E-1,-8.746822476E-1,1.046433568E0,1.519981543E0
8.042186250E-1,5.988479853E-1,-4.728496373E-1,9.781777263E-1,1.240579442E0
8.141856250E-1,4.768116772E-1,-9.381701052E-2,8.387701511E-1,9.693742174E-1
8.241536250E-1,3.322276175E-1,2.256131768E-1,6.880006194E-1,7.966312495E-1
8.341206250E-1,2.245612592E-1,4.913634062E-1,5.922893286E-1,8.016685130E-1
8.440876250E-1,1.709440947E-1,7.078903913E-1,5.274365544E-1,8.991774066E-1
8.540556250E-1,1.661915779E-1,8.819627166E-1,4.839350879E-1,1.019642606E0
8.640226250E-1,1.785808653E-1,9.892670512E-1,5.013369918E-1,1.123333968E0
8.739906250E-1,2.010929585E-1,1.011038065E0,5.509709120E-1,1.168847848E0
8.839576250E-1,2.327307761E-1,9.431429505E-1,5.913492441E-1,1.137266973E0
8.939246250E-1,2.597698271E-1,8.547071815E-1,6.294726133E-1,1.092813113E0
9.038926250E-1,2.783661485E-1,7.853273153E-1,6.971451640E-1,1.086387631E0
9.138596250E-1,2.672243714E-1,7.356430888E-1,7.581874132E-1,1.089691595E0
9.238276250E-1,2.349420637E-1,6.856696606E-1,7.731788754E-1,1.059785936E0
9.337946250E-1,2.025087029E-1,6.416169405E-1,7.512266636E-1,1.008475866E0
9.437616250E-1,2.010128051E-1,6.072109938E-1,7.177760005E-1,9.614123598E-1
9.537296250E-1,2.368011475E-1,6.295692325E-1,6.640222073E-1,9.451760120E-1
9.636966250E-1,2.972722054E-1,7.304561734E-1,5.900414586E-1,9.849293925E-1
9.736646250E-1,3.763908744E-1,8.849514127E-1,4.765023291E-1,1.073249068E0
9.836316250E-1,4.678739309E-1,1.038898468E0,3.000564575E-1,1.178240179E0
9.935996250E-1,4.767626226E-1,1.166514277E0,-1.828896068E-2,1.260314502E0
1.003566625E0,3.035996258E-1,1.229166508E0,-4.917153716E-1,1.358236740E0
1.013533625E0,-1.342235208E-1,1.266751289E0,-9.474148750E-1,1.587535741E0
1.023501625E0,-1.002274513E0,1.595117092E0,-1.354351401E0,2.320176816E0
1.033468625E0,-1.882086635E0,1.778001308E0,-1.712677240E0,3.104319907E0
1.043436625E0,-2.363129139E0,1.556355238E0,-1.928010583E0,3.424010187E0
1.053403625E0,-2.577252865E0,1.190951347E0,-2.094853163E0,3.528315067E0
1.063370625E0,-2.674804449E0,8.595139980E-1,-2.253245354E0,3.601452176E0
1.073338625E0,-2.751080751E0,6.083687544E-1,-2.415655851E0,3.711327395E0
1.083305625E0,-2.796262503E0,4.845415950E-1,-2.587622404E0,3.840527861E0
1.093273625E0,-2.751488209E0,5.469966531E-1,-2.721297741E0,3.908369749E0
1.103240625E0,-2.593917131E0,7.651265860E-1,-2.807777405E0,3.898389248E0
1.113208625E0,-2.344404221E0,1.082829118E0,-2.898210049E0,3.881800038E0
1.123175625E0,-2.064988375E0,1.367318869E0,-2.929039478E0,3.835754182E0
1.133142625E0,-1.759399891E0,1.509263873E0,-2.846572876E0,3.671013832E0
1.143110625E0,-1.343441010E0,1.355913520E0,-2.585137367E0,3.213451482E0
1.153077625E0,-9.352429509E-1,1.019477487E0,-2.225815773E0,2.620738365E0
1.163045625E0,-4.826099575E-1,5.402984023E-1,-1.824284196E0,1.962867179E0
1.173012625E0,5.628763139E-2,1.235916279E-2,-1.473287344E0,1.474414000E0
1.182980625E0,5.893512368E-1,-5.143062472E-1,-1.263672709E0,1.486174456E0
1.192947625E0,8.667780757E-1,-8.684056997E-1,-1.246275067E0,1.748895147E0
1.202914625E0,2.938671410E-1,-5.161006451E-1,-1.509817958E0,1.622426590E0
1.212882625E0,-4.152213037E-1,4.410924017E-1,-1.776720405E0,1.877153865E0
1.222849625E0,-8.276626468E-1,1.330818057E0,-1.737884521E0,2.340159133E0
1.232817625E0,-8.875578046E-1,1.852885365E0,-1.493572712E0,2.540020173E0
1.242784625E0,-6.413989067E-1,1.671697974E0,-1.328104973E0,2.229311439E0
1.252752625E0,-2.538283467E-1,9.165569544E-1,-1.355840683E0,1.656142940E0
1.262719625E0,7.631921023E-2,4.554691911E-2,-1.475472212E0,1.478146607E0
1.272686625E0,1.890028417E-1,-6.170216799E-1,-1.615170121E0,1.739313758E0
1.282654625E0,4.687259719E-2,-9.940397739E-1,-1.676794648E0,1.949859586E0
1.292621625E0,-2.367289960E-1,-1.206388354E0,-1.683329821E0,2.084469420E0
1.302589625E0,-4.875904918E-1,-1.407889485E0,-1.587372065E0,2.177073118E0
1.312556625E0,-6.644701958E-1,-1.623725891E0,-1.383592129E0,2.234353058E0
1.322524625E0,-7.103756666E-1,-1.712883234E0,-1.127764106E0,2.170358136E0
1.332492125E0,-6.514922380E-1,-1.612334013E0,-9.126170874E-1,1.963907598E0
1.342460125E0,-5.539517999E-1,-1.400883555E0,-7.566050887E-1,1.685760538E0
1.352427125E0,-4.414445758E-1,-1.120815635E0,-6.020930409E-1,1.346705993E0
1.362394125E0,-3.123824596E-1,-8.323706388E-1,-4.528644383E-1,9.977524147E-1
1.372362125E0,-1.672232151E-1,-5.697684288E-1,-3.074897528E-1,6.686924661E-1
1.382329125E0,4.187740851E-4,-3.733480573E-1,-1.554299146E-1,4.044099474E-1
1.392297125E0,1.811973751E-1,-2.319546491E-1,1.599679329E-2,2.947733797E-1
1.402264125E0,3.673153222E-1,-1.500669867E-1,2.126099765E-1,4.501595812E-1
1.412232125E0,5.535967350E-1,-1.546974480E-1,4.448640347E-1,7.268456884E-1
1.422199125E0,7.497302890E-1,-2.119021565E-1,7.448177338E-1,1.077845762E0
1.432167125E0,9.708619118E-1,-3.159880340E-1,1.109588504E0,1.507848778E0
1.442134125E0,1.198202729E0,-5.140630603E-1,1.475703120E0,1.969175033E0
1.452101125E0,1.381752372E0,-8.559485078E-1,1.783498049E0,2.413038076E0
1.462069125E0,1.408800244E0,-1.320588231E0,2.037085295E0,2.806846612E0
1.472036125E0,1.033844471E0,-1.795264125E0,2.283401012E0,3.083136042E0
1.482004125E0,-1.212592237E-2,-2.052490234E0,2.427136183E0,3.178655887E0
1.491971125E0,-1.037704706E0,-1.519979835E0,2.120830059E0,2.808040223E0
1.501939125E0,-7.958947420E-1,-6.080892086E-1,1.473091364E0,1.781353163E0
1.511906125E0,5.335012078E-2,3.083146736E-2,8.494778275E-1,8.517096890E-1
1.521873125E0,7.372261882E-1,3.776171207E-1,3.311870098E-1,8.920661287E-1
1.531841125E0,1.038260102E0,5.882440805E-1,-3.635318950E-2,1.193874655E0
1.541808125E0,9.571721554E-1,9.655753970E-1,-3.537604213E-1,1.404870392E0
1.551776125E0,6.231510043E-1,1.156938910E0,-6.376615167E-1,1.460628983E0
1.561743125E0,3.654521108E-1,7.201511264E-1,-8.048803806E-1,1.140177757E0
1.571711125E0,2.371491492E-1,-3.565518856E-1,-6.601047516E-1,7.868336858E-1
1.581678125E0,1.860936880E-1,-1.249760747E0,-1.191581786E-1,1.269145956E0
1.591646125E0,3.465021253E-1,-1.263464212E0,3.536918461E-1,1.357020067E0
1.601613125E0,5.322906375E-1,-6.246523261E-1,8.087280989E-1,1.152200065E0
1.611581125E0,6.764054298E-1,-5.260429531E-2,1.165323257E0,1.348432353E0
1.621548125E0,8.579283357E-1,-4.360947013E-2,1.331859231E0,1.584863346E0
1.631515125E0,9.841929674E-1,-7.224186063E-1,1.282478809E0,1.770671154E0
1.641483125E0,7.582218647E-1,-1.395970345E0,1.080542445E0,1.921251044E0
1.651450125E0,2.604391873E-1,-1.461279273E0,8.153299093E-1,1.693495954E0
1.661418125E0,-1.405572444E-1,-1.213258386E0,5.716445446E-1,1.348528730E0
1.671385125E0,-4.506079257E-1,-8.546975255E-1,4.263652563E-1,1.056097862E0
1.681353125E0,-7.131234407E-1,-4.624232650E-1,3.709454238E-1,9.273515111E-1
1.691320125E0,-9.189518690E-1,-8.520071954E-2,3.805167973E-1,9.982608543E-1
1.701288125E0,-9.969497323E-1,3.077502847E-1,4.343435466E-1,1.130165175E0
1.711255125E0,-9.238321781E-1,6.946791410E-1,5.191650987E-1,1.267113808E0
1.721223125E0,-6.943907142E-1,9.868380427E-1,6.129589677E-1,1.353420290E0
1.731190125E0,-3.179506063E-1,1.181197524E0,6.993493438E-1,1.409045664E0
1.741158125E0,1.241170838E-1,1.280969620E0,7.744894028E-1,1.502039298E0
1.751125125E0,4.777480066E-1,1.221173882E0,8.210252523E-1,1.547123548E0
1.761092125E0,6.698524952E-1,9.401355386E-1,8.263936043E-1,1.419677282E0
1.771060125E0,7.349782586E-1,4.791125655E-1,7.886152864E-1,1.179684687E0
1.781027125E0,7.580348253E-1,-2.733810991E-2,7.266038060E-1,1.050389099E0
1.790995125E0,7.963319421E-1,-5.316491723E-1,6.514743567E-1,1.158108044E0
1.800962125E0,8.811941147E-1,-1.017529011E0,5.861238241E-1,1.468131293E0
1.810930125E0,9.899743199E-1,-1.368905544E0,5.799838305E-1,1.786150270E0
1.820897125E0,1.099119067E0,-1.532136202E0,6.000606418E-1,1.978781655E0
1.830865125E0,1.166788936E0,-1.490209103E0,5.994037986E-1,1.985297082E0
1.840832125E0,1.184217691E0,-1.203926206E0,5.820005536E-1,1.786206733E0
1.850800125E0,1.196029544E0,-7.518591881E-1,5.606712699E-1,1.519911570E0
1.860767125E0,1.203266144E0,-2.202286273E-1,5.555492043E-1,1.343497294E0
1.870735125E0,1.180658817E0,2.278292030E-1,5.929349065E-1,1.340683852E0
1.880702125E0,1.115539670E0,4.634169340E-1,6.390765905E-1,1.366602685E0
1.890670125E0,1.018140078E0,3.929982185E-1,6.494448781E-1,1.269974593E0
1.900637125E0,9.373902678E-1,3.472446650E-2,6.690399051E-1,1.152180844E0
1.910605125E0,9.111033082E-1,-4.187720120E-1,7.715860605E-1,1.265236849E0
1.920572125E0,9.715198278E-1,-7.869125009E-1,9.624612331E-1,1.577787592E0
1.930540125E0,1.167787910E0,-1.060460329E0,1.079339981E0,1.911355411E0
1.940507125E0,1.572299719E0,-1.255282760E0,1.117521405E0,2.301459386E0
1.950474125E0,1.972359061E0,-1.231243491E0,1.056048155E0,2.553702901E0
1.960442125E0,2.077589035E0,-1.048305392E0,9.124583006E-1,2.499580074E0
1.970409125E0,1.898594975E0,-8.179321289E-1,7.694812417E-1,2.205850682E0
1.980377125E0,1.620778561E0,-5.033408999E-1,6.937774420E-1,1.833467301E0
1.990344125E0,1.381936550E0,-1.362254322E-1,6.831661463E-1,1.547585856E0
2.000312125E0,1.222624898E0,1.677424461E-1,7.020871043E-1,1.419815295E0
2.010279125E0,1.128052711E0,2.758485377E-1,7.219936252E-1,1.367431947E0
2.020247125E0,1.041629434E0,2.226644009E-1,7.493306994E-1,1.302331682E0
2.030214125E0,9.111030102E-1,1.779437065E-1,8.052895069E-1,1.228927926E0
2.040182125E0,7.196273208E-1,3.075387478E-1,8.818615079E-1,1.179034894E0
2.050149125E0,5.053657293E-1,5.655661821E-1,9.625787735E-1,1.225486647E0
2.060117125E0,3.593459427E-1,8.327893615E-1,1.029446006E0,1.372015563E0
2.070084125E0,3.212421238E-1,1.022129416E0,1.053551316E0,1.502636158E0
2.080052125E0,3.674831390E-1,1.169688225E0,1.057052016E0,1.618818509E0
2.090019125E0,4.180695415E-1,1.306531787E0,1.043073177E0,1.723313409E0
2.099987125E0,4.125397503E-1,1.370548844E0,9.561334848E-1,1.721274069E0
2.109954125E0,3.954760432E-1,1.290690422E0,8.006778955E-1,1.569512077E0
2.119922125E0,4.260211587E-1,1.114677906E0,6.225957870E-1,1.345966707E0
2.129889125E0,5.152739882E-1,9.389827251E-1,4.510394335E-1,1.162167119E0
2.139857125E0,6.440032125E-1,8.121379614E-1,3.021585941E-1,1.079633281E0
2.149824125E0,7.724546790E-1,7.768047452E-1,1.688279659E-1,1.108428945E0
2.159792125E0,8.517825007E-1,7.936449647E-1,1.886697300E-2,1.164371814E0
2.169759125E0,7.850112915E-1,7.537047267E-1,-2.713841498E-1,1.121589452E0
2.179727125E0,4.490013421E-1,7.110784054E-1,-6.044414639E-1,1.035656404E0
2.189694125E0,-4.275617003E-1,9.245604873E-1,-8.173831105E-1,1.306038381E0
2.199662125E0,-1.426449418E0,1.097724915E0,-9.597154856E-1,2.039806791E0
2.209629125E0,-2.029334307E0,1.108189702E0,-1.147801757E0,2.581420349E0
2.219597125E0,-2.248353243E0,1.104620218E0,-1.388224006E0,2.863990926E0
2.229564125E0,-2.192284346E0,1.031216502E0,-1.623657107E0,2.916467131E0
2.239532125E0,-2.009637833E0,7.886708975E-1,-1.817433238E0,2.822004532E0
2.249499125E0,-1.933022380E0,4.001368582E-1,-1.968871117E0,2.788034881E0
2.259466125E0,-2.012884855E0,4.466052353E-2,-2.147509575E0,2.943721688E0
2.269434125E0,-2.139455080E0,-7.243640721E-2,-2.375661135E0,3.197855672E0
2.279401125E0,-2.194974422E0,2.256445587E-1,-2.644654512E0,3.444274332E0
2.289369125E0,-2.168464899E0,8.602771759E-1,-2.813517094E0,3.654886493E0
2.299336125E0,-2.129250526E0,1.524076104E0,-2.851958275E0,3.871715612E0
2.309304125E0,-2.075887442E0,2.033920050E0,-2.837393761E0,4.061642869E0
2.319271125E0,-2.027070045E0,2.231834888E0,-2.864822865E0,4.159003484E0
2.329239125E0,-1.969920158E0,2.211413145E0,-2.905665398E0,4.148954679E0
2.339205792E0,-1.856192470E0,1.986956835E0,-2.852920294E0,3.941142239E0
2.349173792E0,-1.649550080E0,1.643912196E0,-2.617012262E0,3.503172271E0
2.359140792E0,-1.328103304E0,1.297935605E0,-2.239511251E0,2.909279269E0
2.369108792E0,-8.789493442E-1,1.158346772E0,-1.831243873E0,2.338327033E0
2.379075792E0,-3.871444166E-1,1.318612337E0,-1.524733543E0,2.052664530E0
2.389043792E0,1.797541045E-2,1.747336268E0,-1.383464098E0,2.228784436E0
2.399010792E0,2.642017007E-1,2.034981966E0,-1.416606069E0,2.493537025E0
2.408978792E0,2.346069962E-1,1.933924198E0,-1.508584499E0,2.463925818E0
2.418945792E0,1.459021121E-2,1.365508437E0,-1.564411044E0,2.076585679E0
2.428913792E0,-2.833583355E-1,5.521910787E-1,-1.567079067E0,1.685509934E0
2.438880792E0,-5.117028356E-1,-2.321551442E-1,-1.599967957E0,1.695769225E0
2.448848792E0,-6.067230701E-1,-7.721979022E-1,-1.659987569E0,1.928720097E0
2.458815792E0,-5.870723724E-1,-1.095859647E0,-1.727312446E0,2.128184818E0
2.468783792E0,-5.492172837E-1,-1.277146697E0,-1.753697991E0,2.237900792E0
2.478750792E0,-5.587173104E-1,-1.373744249E0,-1.656295538E0,2.223207864E0
2.488718792E0,-5.970612764E-1,-1.475036979E0,-1.432354569E0,2.140994131E0
2.498685792E0,-6.434918642E-1,-1.637281537E0,-1.139929891E0,2.096237765E0
2.508653792E0,-6.810467243E-1,-1.804155827E0,-8.713511825E-1,2.116141718E0
2.518620792E0,-6.517553926E-1,-1.804879069E0,-6.605209708E-1,2.029448570E0
2.528588792E0,-5.244377851E-1,-1.566327333E0,-4.983348250E-1,1.725327187E0
2.538555792E0,-3.393766284E-1,-1.211853385E0,-3.725465536E-1,1.312461831E0
2.548523792E0,-1.322699934E-1,-8.142910004E-1,-2.530785501E-1,8.629101558E-1
2.558490792E0,7.177395374E-2,-4.322818220E-1,-1.172314808E-1,4.536102888E-1
2.568458792E0,2.736431658E-1,-1.672672033E-1,2.711637318E-2,3.218605245E-1
2.578425792E0,4.720403850E-1,-4.743588343E-2,1.978564113E-1,5.140228085E-1
2.588393792E0,7.088314295E-1,-3.701446578E-2,4.006866217E-1,8.150839435E-1
2.598360792E0,9.968147278E-1,-1.158996969E-1,6.819140315E-1,1.213292664E0
2.608328792E0,1.279143214E0,-2.994055748E-1,1.077260375E0,1.698923476E0
2.618295792E0,1.491769910E0,-6.350403428E-1,1.541627765E0,2.237246045E0
2.628263792E0,1.574741840E0,-1.054316163E0,1.985406399E0,2.744673570E0
2.638231792E0,1.468989134E0,-1.442014933E0,2.349309206E0,3.123554047E0
2.648198792E0,8.497658968E-1,-1.863262177E0,2.694605589E0,3.384486268E0
2.658166792E0,-6.187524796E-1,-2.502355337E0,2.939044952E0,3.909299438E0
2.668133792E0,-1.587593198E0,-2.557158709E0,2.680416584E0,4.030402695E0
2.678101792E0,-9.089749455E-1,-2.155170679E0,1.951192379E0,3.046005221E0
2.688068792E0,4.356803000E-1,-1.491144419E0,1.116541028E0,1.913110783E0
2.698036792E0,1.214304447E0,-1.052452475E-1,2.541433275E-1,1.245070554E0
2.708003792E0,1.383677721E0,1.560360670E0,-2.077754140E-1,2.095819668E0
2.717971792E0,1.177543998E0,2.852926016E0,-3.271574676E-1,3.103679869E0
2.727938792E0,8.935829997E-1,3.279694796E0,-3.551723957E-1,3.417753057E0
2.737906792E0,7.442675233E-1,2.397374392E0,-3.857718706E-1,2.539716137E0
2.747873792E0,7.019273639E-1,6.787359715E-1,-3.585058451E-1,1.040149501E0
2.757841792E0,6.375265718E-1,-1.083709598E0,-1.974999160E-1,1.272742251E0
2.767808792E0,5.393038988E-1,-1.738893151E0,8.751276135E-2,1.822705838E0
2.777776792E0,5.288954377E-1,-1.398916960E0,3.172801733E-1,1.528844581E0
2.787743792E0,5.034180880E-1,-6.601673961E-1,6.140477061E-1,1.032620621E0
2.797711792E0,4.402888715E-1,-1.663904637E-1,8.479840159E-1,9.698540963E-1
2.807678792E0,4.151844084E-1,-3.953894377E-1,9.360611439E-1,1.097689102E0
2.817646792E0,3.480879366E-1,-1.241598248E0,9.200614095E-1,1.584059475E0
2.827613792E0,-1.372496877E-2,-1.728661895E0,9.196943045E-1,1.958136342E0
2.837581792E0,-3.549267650E-1,-1.781972170E0,7.096819282E-1,1.950652778E0
2.847548792E0,-5.559206009E-1,-1.527005076E0,4.339664578E-1,1.681998545E0
2.857516792E0,-7.041686773E-1,-1.122014642E0,2.863109708E-1,1.355265418E0
2.867483792E0,-8.171606660E-1,-7.791959643E-1,2.566983104E-1,1.157925700E0
2.877451792E0,-8.587659001E-1,-4.297239780E-1,2.518995702E-1,9.927713544E-1
2.887418792E0,-8.149364591E-1,-9.305521101E-2,2.540817261E-1,8.586840095E-1
2.897386792E0,-6.827598214E-1,2.607846260E-1,2.611542940E-1,7.761257374E-1
2.907353792E0,-4.717746973E-1,6.142630577E-1,2.921362221E-1,8.277886453E-1
2.917321792E0,-2.222407758E-1,9.815340638E-1,3.591996729E-1,1.068561877E0
2.927288792E0,5.299267918E-2,1.365500689E0,4.679018259E-1,1.444414232E0
2.937256792E0,3.017516434E-1,1.636309505E0,5.943766832E-1,1.766874781E0
2.947224792E0,4.772362113E-1,1.709522247E0,6.921293736E-1,1.905062672E0
2.957191792E0,5.955471396E-1,1.576534033E0,7.815583348E-1,1.857678493E0
2.967159792E0,6.869713664E-1,1.084380507E0,8.100212216E-1,1.517875200E0
2.977126792E0,8.713180423E-1,1.843909770E-1,7.562922239E-1,1.168406218E0
2.987094792E0,1.100840449E0,-8.618460894E-1,6.584427357E-1,1.545372192E0
2.997061792E0,1.313134551E0,-1.736477733E0,5.916037560E-1,2.256030201E0
3.007029792E0,1.417200923E0,-2.224433661E0,5.935978889E-1,2.703501807E0
3.016996792E0,1.436515331E0,-2.328201771E0,6.883696318E-1,2.820984320E0
3.026964792E0,1.434521675E0,-2.186419725E0,7.909176350E-1,2.732001896E0
3.036931792E0,1.470878363E0,-1.845781326E0,8.682973981E-1,2.514822505E0
3.046899792E0,1.577140808E0,-1.274357557E0,8.920726180E-1,2.215209667E0
3.056866792E0,1.648812413E0,-4.918622375E-1,7.994526625E-1,1.897270512E0
3.066834792E0,1.491285563E0,1.052356362E-1,6.981037855E-1,1.649956382E0
3.076801792E0,1.105379581E0,3.396987319E-1,6.963676810E-1,1.349884141E0
3.086769792E0,6.557986736E-1,3.478044868E-1,7.881611586E-1,1.082699346E0
3.096736792E0,2.977675200E-1,2.985011339E-1,8.887207508E-1,9.836630499E-1
3.106704792E0,1.709412634E-1,2.099274099E-1,9.625672698E-1,9.999130872E-1
3.116671792E0,4.949571490E-1,-5.276147649E-2,1.062205195E0,1.173049969E0
3.126639792E0,1.320469737E0,-4.246080816E-1,1.182939172E0,1.822985857E0
3.136607792E0,2.022861719E0,-6.689333916E-1,1.149621964E0,2.420965113E0
3.146574792E0,2.239086151E0,-7.505921125E-1,9.563910365E-1,2.547857752E0
3.156542792E0,2.120163918E0,-6.837757826E-1,7.591429353E-1,2.353495773E0
3.166509792E0,1.879773736E0,-4.559569657E-1,6.661736965E-1,2.045784311E0
3.176477792E0,1.615796924E0,-8.765831590E-2,6.613951921E-1,1.748121071E0
3.186444792E0,1.404342055E0,2.746184170E-1,6.869720817E-1,1.587300389E0
3.196412792E0,1.276511908E0,4.563400149E-1,7.289472222E-1,1.539185795E0
3.206379792E0,1.207565784E0,4.285098910E-1,8.098394275E-1,1.515808612E0
3.216347792E0,1.107180238E0,3.314935863E-1,9.220861197E-1,1.478505627E0
3.226314792E0,9.221082926E-1,3.168673813E-1,1.030571938E0,1.418720254E0
3.236282792E0,6.617741585E-1,4.408068955E-1,1.103951335E0,1.360501491E0
3.246249792E0,4.317103326E-1,6.597386003E-1,1.095782399E0,1.349951073E0
3.256217792E0,3.270739317E-1,9.066373706E-1,9.995290041E-1,1.388534086E0
3.266184792E0,2.907644212E-1,1.184048295E0,8.584327698E-1,1.491114058E0
3.276152792E0,2.443756014E-1,1.383675933E0,7.210205793E-1,1.579287560E0
3.286119792E0,1.895950288E-1,1.398694396E0,5.854700804E-1,1.528092767E0
3.296087792E0,1.564392000E-1,1.235336185E0,4.569579065E-1,1.326400860E0
3.306055792E0,1.793516725E-1,9.955742359E-1,3.499608040E-1,1.070424050E0
3.316022792E0,2.852685153E-1,7.571230531E-1,2.719349861E-1,8.535584807E-1
3.325990792E0,4.679535627E-1,5.783344507E-1,2.036819011E-1,7.713219760E-1
3.335958250E0,6.358261704E-1,4.997232556E-1,7.382855564E-2,8.120645953E-1
3.345926250E0,7.111755610E-1,5.143534541E-1,-1.948630512E-1,8.990560399E-1
3.355893250E0,6.115331650E-1,6.347522736E-1,-4.752976298E-1,1.001394576E0
3.365861250E0,1.784898192E-1,8.535587788E-1,-6.669933200E-1,1.097862147E0
3.375828250E0,-7.113005519E-1,1.162063360E0,-7.598207593E-1,1.560021575E0
3.385796250E0,-1.531987786E0,1.222770095E0,-8.589713573E-1,2.140089969E0
3.395763250E0,-1.957445264E0,1.166019917E0,-1.063781977E0,2.514523116E0
3.405731250E0,-2.012915373E0,1.090079069E0,-1.311133146E0,2.638024034E0
3.415698250E0,-1.846433043E0,9.289333820E-1,-1.512892723E0,2.561459858E0
3.425666250E0,-1.718688846E0,6.222730875E-1,-1.655137181E0,2.465886095E0
3.435634250E0,-1.777404904E0,2.693720162E-1,-1.805006385E0,2.547504176E0
3.445601250E0,-1.966879725E0,9.526108205E-2,-1.978398681E0,2.791370966E0
3.455569250E0,-2.162648678E0,2.207084894E-1,-2.246180534E0,3.125874043E0
3.465536250E0,-2.278367996E0,5.974757075E-1,-2.570391655E0,3.486380818E0
3.475504250E0,-2.277087212E0,1.080598593E0,-2.784422398E0,3.755772567E0
3.485471250E0,-2.233385563E0,1.510733724E0,-2.880741358E0,3.945756990E0
3.495439250E0,-2.143503904E0,1.804239154E0,-2.922301769E0,4.048423834E0
3.505406250E0,-2.052122831E0,1.960587621E0,-2.966549158E0,4.105548178E0
3.515374250E0,-1.959375381E0,2.036362886E0,-2.969036102E0,4.098914621E0
3.525341250E0,-1.802201509E0,2.023622513E0,-2.817957401E0,3.909458053E0
3.535309250E0,-1.523504138E0,1.913702726E0,-2.492753983E0,3.492441181E0
3.545277250E0,-1.159768581E0,1.739121318E0,-2.074118137E0,2.944753329E0
3.555244250E0,-7.250427008E-1,1.639840007E0,-1.712970614E0,2.479723874E0
3.565212250E0,-2.395225763E-1,1.796572685E0,-1.564576864E0,2.394356958E0
3.575179250E0,1.209762245E-1,1.961188793E0,-1.592276335E0,2.529079013E0
3.585147250E0,2.093221545E-1,1.890939832E0,-1.636866927E0,2.509741530E0
3.595114250E0,8.670703322E-2,1.639750481E0,-1.660866261E0,2.335546292E0
3.605082250E0,-1.452158391E-1,1.181166172E0,-1.625306606E0,2.014413744E0
3.615049250E0,-4.217185378E-1,5.398188829E-1,-1.519038796E0,1.666352249E0
3.625017250E0,-6.261984110E-1,-8.748710901E-2,-1.400990486E0,1.537059786E0
3.634984250E0,-7.000657320E-1,-6.021201015E-1,-1.389311433E0,1.668180717E0
3.644952250E0,-6.582903266E-1,-9.811589122E-1,-1.468692780E0,1.884960861E0
3.654920250E0,-5.779792666E-1,-1.234709859E0,-1.533911228E0,2.052182283E0
3.664887250E0,-5.492632985E-1,-1.386514544E0,-1.455475330E0,2.083871683E0
3.674855250E0,-5.992779732E-1,-1.518808126E0,-1.247926354E0,2.055050462E0
3.684822250E0,-6.922327876E-1,-1.709180713E0,-1.018067837E0,2.106406196E0
3.694790250E0,-7.352265716E-1,-1.857872486E0,-8.256903887E-1,2.161946554E0
3.704757250E0,-7.070146799E-1,-1.971283913E0,-6.690736413E-1,2.198519856E0
3.714725250E0,-5.954881310E-1,-1.858983397E0,-5.361067653E-1,2.024311204E0
3.724692250E0,-4.484757483E-1,-1.589607120E0,-4.311101139E-1,1.706996550E0
3.734660250E0,-2.931346297E-1,-1.257201195E0,-3.250175118E-1,1.331209652E0
3.744627250E0,-1.149069965E-1,-9.249873161E-1,-1.886510253E-1,9.509965101E-1
3.754595250E0,9.001845866E-2,-6.557388306E-1,-4.004742578E-2,6.630991880E-1
3.764563250E0,3.181596994E-1,-5.078800321E-1,1.356845051E-1,6.144737637E-1
3.774530250E0,6.037890315E-1,-4.341922104E-1,3.367505074E-1,8.163853100E-1
3.784498250E0,9.643399715E-1,-4.249999225E-1,5.864202976E-1,1.206012139E0
3.794465250E0,1.323115230E0,-5.158590078E-1,9.541948438E-1,1.710915611E0
3.804433250E0,1.564231753E0,-7.288336754E-1,1.400837541E0,2.222693258E0
3.814400250E0,1.641855478E0,-9.927076697E-1,1.798294902E0,2.629643033E0
3.824368250E0,1.497764349E0,-1.233310103E0,2.091106653E0,2.852556554E0
3.834335250E0,9.272494912E-1,-1.508762717E0,2.353239536E0,2.945147343E0
3.844303250E0,-2.508971691E-1,-1.980546951E0,2.584488869E0,3.265746213E0
3.854270250E0,-1.285780430E0,-2.208519459E0,2.464321136E0,3.550164528E0
3.864238250E0,-1.117814183E0,-1.981095433E0,1.793522000E0,2.896716905E0
3.874206250E0,1.007244810E-1,-1.654696822E0,9.852837920E-1,1.928458230E0
3.884173250E0,1.072851419E0,-5.165452361E-1,1.675830334E-1,1.202461318E0
3.894141250E0,1.368701100E0,1.187946081E0,-4.245183468E-1,1.861390454E0
3.904108250E0,1.220409274E0,2.313826561E0,-6.253511906E-1,2.689657276E0
3.914076250E0,9.083281159E-1,2.673241377E0,-6.277000904E-1,2.892280558E0
3.924043250E0,6.602846384E-1,1.974830389E0,-5.620968342E-1,2.156822598E0
3.934011250E0,4.920935035E-1,4.962925315E-1,-4.415879846E-1,8.267177518E-1
3.943978250E0,3.447879255E-1,-1.031933784E0,-1.448859125E-1,1.097614676E0
3.953946250E0,3.135154843E-1,-1.464546204E0,2.047554404E-1,1.511658801E0
3.963914250E0,4.344427288E-1,-9.629715681E-1,3.692148030E-1,1.119095303E0
3.973881250E0,5.422014594E-1,-1.894510537E-1,5.544149876E-1,7.982794641E-1
3.983849250E0,6.690802574E-1,2.473910153E-1,6.819521785E-1,9.868786547E-1
3.993816250E0,9.533705711E-1,-1.045374572E-1,6.944597363E-1,1.184110574E0
4.003784250E0,1.108380675E0,-1.128665447E0,6.794030070E-1,1.721621869E0
4.013751250E0,6.319577098E-1,-1.599806309E0,8.113277555E-1,1.901842133E0
4.023719250E0,3.559940681E-2,-1.436887503E0,8.105034232E-1,1.650099637E0
4.033686250E0,-3.558314741E-1,-1.171710253E0,6.182476878E-1,1.371769353E0
4.043654250E0,-6.151900291E-1,-9.265040159E-1,5.312839746E-1,1.232530375E0
4.053622250E0,-8.153876066E-1,-7.058060169E-1,5.576383471E-1,1.214075619E0
4.063589250E0,-9.447919726E-1,-4.790567160E-1,6.061692834E-1,1.220478762E0
4.073557250E0,-9.963496923E-1,-2.121048868E-1,6.393727660E-1,1.202704754E0
4.083524250E0,-9.236245751E-1,1.289232671E-1,6.454700232E-1,1.134167146E0
4.093492250E0,-7.252832055E-1,5.446959734E-1,6.383820176E-1,1.109171327E0
4.103459250E0,-4.175511599E-1,9.850084782E-1,6.217743158E-1,1.237414229E0
4.113427250E0,-7.010956109E-2,1.345026612E0,6.296349168E-1,1.486758913E0
4.123395250E0,2.498409748E-1,1.540380239E0,6.522352099E-1,1.691331595E0
4.133362250E0,4.834614396E-1,1.520358801E0,7.055959105E-1,1.744445882E0
4.143330250E0,6.015237570E-1,1.274668455E0,7.621963024E-1,1.602358794E0
4.153297250E0,7.102116346E-1,7.090070844E-1,7.816962004E-1,1.272061540E0
4.163265250E0,8.996104002E-1,-2.080021203E-1,7.184008360E-1,1.169898934E0
4.173232250E0,1.120863438E0,-1.170541048E0,6.670066118E-1,1.752540730E0
4.183200250E0,1.301094413E0,-1.873703599E0,6.793849468E-1,2.380162968E0
4.193167250E0,1.382707238E0,-2.212826490E0,7.676365376E-1,2.719879820E0
4.203135250E0,1.383678317E0,-2.243289232E0,8.822677732E-1,2.779443953E0
4.213103250E0,1.336106300E0,-2.079405069E0,9.452643394E-1,2.646248318E0
4.223070250E0,1.285234690E0,-1.804339767E0,9.139001369E-1,2.396389714E0
4.233038250E0,1.306190729E0,-1.401309490E0,8.220895529E-1,2.084618368E0
4.243005250E0,1.382770419E0,-8.687949181E-1,6.936060786E-1,1.774245765E0
4.252973250E0,1.388789415E0,-3.423817158E-1,6.397675872E-1,1.566928156E0
4.262940250E0,1.274910688E0,-4.783803597E-3,6.715727448E-1,1.440982338E0
4.272908250E0,1.122733712E0,9.789516777E-2,7.282652855E-1,1.341821441E0
4.282876250E0,1.023449421E0,6.917642429E-3,8.485206962E-1,1.329467541E0
4.292843250E0,1.073258042E0,-2.019458264E-1,1.041009665E0,1.508763091E0
4.302811250E0,1.339898467E0,-4.971655011E-1,1.175235868E0,1.850319103E0
4.312778250E0,1.774759889E0,-7.189985514E-1,1.216292500E0,2.268501493E0
4.322746250E0,2.068331957E0,-7.489633560E-1,1.133116245E0,2.474448548E0
4.332713375E0,2.001327038E0,-6.748518944E-1,9.488074183E-1,2.315376969E0
4.342681375E0,1.663088560E0,-5.436829329E-1,7.693292499E-1,1.911366575E0
4.352649375E0,1.213622689E0,-3.305081129E-1,6.855536699E-1,1.432515089E0
4.362616375E0,8.017660975E-1,-2.355600521E-2,7.084664106E-1,1.070190831E0
4.372584375E0,5.663679838E-1,3.323858678E-1,7.462201715E-1,9.940309867E-1
4.382551375E0,5.058783293E-1,5.612931848E-1,7.309759259E-1,1.051327127E0
4.392519375E0,5.448142886E-1,6.205104589E-1,7.257619500E-1,1.099357197E0
4.402486375E0,6.172050238E-1,5.894769430E-1,7.595464587E-1,1.142512989E0
4.412454375E0,6.572515368E-1,5.944405198E-1,8.261819482E-1,1.211575720E0
4.422422375E0,6.365687251E-1,6.693459749E-1,8.965206742E-1,1.287242438E0
4.432389375E0,5.759101510E-1,7.970000505E-1,9.307425618E-1,1.353943610E0
4.442357375E0,5.072529316E-1,1.023694277E0,9.199823737E-1,1.466841190E0
4.452324375E0,4.417780340E-1,1.336902499E0,9.018126726E-1,1.672047314E0
4.462292375E0,3.759312928E-1,1.569400907E0,8.833966255E-1,1.839764425E0
4.472259375E0,3.290902972E-1,1.531508923E0,8.156476617E-1,1.766097707E0
4.482227375E0,3.494792581E-1,1.252652645E0,6.929116845E-1,1.473567441E0
4.492195375E0,4.481461942E-1,9.719585180E-1,5.709996223E-1,1.213086535E0
4.502162375E0,5.609655976E-1,7.549328804E-1,4.549203217E-1,1.044776797E0
4.512130375E0,6.399962306E-1,6.247546077E-1,3.400472403E-1,9.568414814E-1
4.522097375E0,6.309679747E-1,5.994004607E-1,1.914837360E-1,8.911046619E-1
4.532065375E0,4.841186404E-1,6.377393603E-1,8.460118435E-3,8.007208773E-1
4.542032375E0,1.892136484E-1,5.614359379E-1,-2.583223879E-1,6.463300807E-1
4.552000375E0,-2.887651622E-1,4.002571404E-1,-6.091057062E-1,7.839648326E-1
4.561968375E0,-9.028237462E-1,3.085346520E-1,-9.169709086E-1,1.323298906E0
4.571935375E0,-1.434381366E0,3.129525781E-1,-1.155793786E0,1.868488291E0
4.581903375E0,-1.706768513E0,3.546024263E-1,-1.373553634E0,2.219335761E0
4.591870375E0,-1.749144912E0,3.675187528E-1,-1.599923611E0,2.398819192E0
4.601838375E0,-1.669329286E0,3.891920447E-1,-1.846616387E0,2.519548133E0
4.611805375E0,-1.686863065E0,3.630046546E-1,-2.102950096E0,2.720235006E0
4.621773375E0,-1.850365520E0,3.609299064E-1,-2.314191103E0,2.984895880E0
4.631741375E0,-2.046040297E0,4.245238006E-1,-2.414227009E0,3.192959975E0
4.641708375E0,-2.133861780E0,6.077844501E-1,-2.410738468E0,3.276343693E0
4.651676375E0,-2.114976168E0,9.106921554E-1,-2.356067657E0,3.294471004E0
4.661643375E0,-2.054979563E0,1.242236018E0,-2.341011047E0,3.353568853E0
4.671611375E0,-1.977562547E0,1.530331135E0,-2.410152674E0,3.472967451E0
4.681579375E0,-1.904232740E0,1.699548364E0,-2.525271177E0,3.590482069E0
4.691546375E0,-1.831166744E0,1.781323314E0,-2.609893799E0,3.652099401E0
4.701514375E0,-1.750509024E0,1.804171324E0,-2.607720137E0,3.622087840E0
4.711481375E0,-1.610015869E0,1.792176127E0,-2.485645056E0,3.461571567E0
4.721449375E0,-1.364128828E0,1.800280333E0,-2.268822432E0,3.201470281E0
4.731416375E0,-1.021708369E0,1.893129945E0,-2.010584831E0,2.944533977E0
4.741384375E0,-6.080024838E-1,2.079109907E0,-1.791503668E0,2.811023020E0
4.751352375E0,-2.420159578E-1,2.339698076E0,-1.708808303E0,2.907367302E0
4.761319375E0,-9.126425721E-3,2.366797924E0,-1.682176948E0,2.903710555E0
4.771287375E0,4.243104160E-2,2.038105726E0,-1.670821428E0,2.635776848E0
4.781254375E0,-4.093299806E-2,1.432330370E0,-1.656252503E0,2.190072637E0
4.791222375E0,-2.115095258E-1,7.903822660E-1,-1.586980224E0,1.785482186E0
4.801189375E0,-3.925190568E-1,2.081148177E-1,-1.453116059E0,1.519516130E0
4.811157375E0,-5.193232894E-1,-2.929301858E-1,-1.348016620E0,1.473992395E0
4.821125375E0,-5.781188607E-1,-5.876136422E-1,-1.234840989E0,1.484703162E0
4.831092375E0,-9.005038142E-1,-2.392231226E0,-1.336068749E0,2.884225557E0
4.841060375E0,-7.027819157E-1,-1.629641056E0,-1.382582664E0,2.249703806E0
4.851027375E0,-4.066410363E-1,-6.815903187E-1,-1.384664655E0,1.596000784E0
4.860995375E0,-2.371430397E-1,-3.966970742E-1,-1.293335795E0,1.373434698E0
4.870963375E0,-2.146283984E-1,-6.658174992E-1,-1.117437959E0,1.318349682E0
4.880930375E0,-2.749201357E-1,-1.093246341E0,-9.330235124E-1,1.463318666E0
4.890898375E0,-2.906612754E-1,-1.355215907E0,-7.711856365E-1,1.586134111E0
4.900865375E0,-2.809715271E-1,-1.835829258E0,-6.164290905E-1,1.956833894E0
4.910833375E0,-1.963892579E-1,-1.944763422E0,-4.398125112E-1,2.003524034E0
4.920801375E0,-3.648842126E-2,-1.519181132E0,-2.813690007E-1,1.545448554E0
4.930768375E0,1.329277754E-1,-1.013031960E0,-1.366288513E-1,1.030810840E0
4.940736375E0,2.857088149E-1,-7.068712115E-1,-4.405084997E-3,7.624407133E-1
4.950703375E0,4.479294121E-1,-5.716044903E-1,1.500952691E-1,7.415531278E-1
4.960671375E0,6.623456478E-1,-5.146438479E-1,3.523166180E-1,9.097730743E-1
4.970638375E0,9.206696153E-1,-5.150097609E-1,6.383675337E-1,1.233037186E0
4.980606375E0,1.185069442E0,-5.836022496E-1,9.925264716E-1,1.652298388E0
4.990574375E0,1.390177250E0,-7.497184873E-1,1.358296275E0,2.083180109E0
5.000541375E0,1.483712077E0,-9.929910898E-1,1.680388689E0,2.451762423E0
5.010509375E0,1.411271691E0,-1.245441556E0,1.965275764E0,2.721235250E0
5.020476375E0,1.012590766E0,-1.527614474E0,2.214602709E0,2.874614965E0
5.030444375E0,8.372465521E-2,-1.861970186E0,2.428978205E0,3.061678937E0
5.040412375E0,-9.240503311E-1,-2.124703884E0,2.388622522E0,3.327724923E0
5.050379375E0,-1.269253016E0,-1.900463462E0,1.883723140E0,2.961617371E0
5.060347375E0,-4.950765967E-1,-1.622311354E0,1.173121691E0,2.062331076E0
5.070314375E0,5.389159322E-1,-1.208951473E0,4.927313626E-1,1.412366186E0
5.080282375E0,1.081278682E0,4.165338725E-2,-9.425026178E-2,1.086177566E0
5.090250375E0,1.099989533E0,1.686397910E0,-4.521189332E-1,2.063571277E0
5.100217375E0,8.667958379E-1,2.842598438E0,-5.796965957E-1,3.027829098E0
5.110185375E0,6.515034437E-1,2.735264301E0,-6.169704199E-1,2.878676785E0
5.120152375E0,5.332744122E-1,1.527533174E0,-5.602343082E-1,1.712192067E0
5.130120375E0,3.656105697E-1,-1.476904601E-1,-3.412615359E-1,5.214815400E-1
5.140087375E0,2.145422101E-1,-1.275812030E0,6.181447208E-2,1.295201036E0
5.150055375E0,2.883580923E-1,-1.299453139E0,2.767837644E-1,1.359535988E0
5.160023375E0,4.244157374E-1,-7.884429097E-1,4.231981039E-1,9.903875884E-1
5.169990375E0,5.241199136E-1,-3.283922076E-1,5.528717041E-1,8.295843821E-1
5.179958375E0,6.065586805E-1,-2.669771910E-1,6.449839473E-1,9.247672927E-1
5.189925375E0,6.092284918E-1,-5.858033895E-1,7.060768604E-1,1.101303545E0
5.199893375E0,3.799775839E-1,-8.824933171E-1,7.735751867E-1,1.233529890E0
5.209861375E0,-3.460307047E-2,-9.325415492E-1,7.938708663E-1,1.225178381E0
5.219828375E0,-3.563921452E-1,-9.184450507E-1,6.475332379E-1,1.178921527E0
5.229796375E0,-5.154328942E-1,-8.791466951E-1,4.843709171E-1,1.128355071E0
5.239763375E0,-6.005098820E-1,-7.869054079E-1,4.088816643E-1,1.070988541E0
5.249731375E0,-6.671315432E-1,-6.994274855E-1,4.033225775E-1,1.047345409E0
5.259699375E0,-6.905241013E-1,-5.418273807E-1,4.189020991E-1,9.725633211E-1
5.269666375E0,-6.217045188E-1,-2.860637903E-1,4.459608793E-1,8.168415432E-1
5.279634375E0,-4.586659670E-1,5.553418025E-2,4.804100096E-1,6.665225366E-1
5.289601375E0,-2.426324636E-1,3.886780441E-1,5.115077496E-1,6.867177821E-1
5.299569375E0,-7.857697085E-3,6.935344338E-1,5.573530197E-1,8.897719612E-1
5.309537375E0,1.960493624E-1,9.083942771E-1,6.170102358E-1,1.115489644E0
5.319504375E0,3.341128528E-1,9.949704409E-1,6.836100817E-1,1.252565495E0
5.329472375E0,3.789655566E-1,9.172503352E-1,7.398325801E-1,1.237867245E0
5.339438542E0,4.078218043E-1,6.329600215E-1,7.739647031E-1,1.079804785E0
5.349406542E0,5.289167762E-1,-1.408611890E-2,7.335485816E-1,9.044583442E-1
5.359374542E0,7.404147983E-1,-8.561537862E-1,6.647551656E-1,1.312673916E0
5.369341542E0,9.368868470E-1,-1.520282149E0,6.374918818E-1,1.896156818E0
5.379309542E0,1.073442459E0,-1.899975061E0,6.453998685E-1,2.275681203E0
5.389276542E0,1.149648786E0,-2.022402287E0,6.502913237E-1,2.415508672E0
5.399244542E0,1.178026676E0,-1.911796808E0,6.879035234E-1,2.348600678E0
5.409212542E0,1.198720455E0,-1.630080104E0,7.520619631E-1,2.158631296E0
5.419179542E0,1.267825723E0,-1.187226534E0,8.149108887E-1,1.918585068E0
5.429147542E0,1.375030994E0,-6.360429525E-1,8.100159764E-1,1.717960056E0
5.439114542E0,1.413157940E0,-1.446172893E-1,7.458251715E-1,1.604426598E0
5.449082542E0,1.293567061E0,7.063829899E-2,7.204726338E-1,1.482358367E0
5.459050542E0,1.079997540E0,-2.314497903E-2,7.889823318E-1,1.337693349E0
5.469017542E0,8.800772429E-1,-3.371068835E-1,9.440483451E-1,1.333943133E0
5.478985542E0,7.978453636E-1,-7.019237876E-1,1.089017987E0,1.521582861E0
5.488952542E0,9.239777327E-1,-1.046764612E0,1.165724397E0,1.818890973E0
5.498920542E0,1.372751355E0,-1.382006407E0,1.223593712E0,2.300341184E0
5.508888542E0,1.949459910E0,-1.476287603E0,1.199795723E0,2.723844490E0
5.518855542E0,2.224513769E0,-1.264092207E0,1.059282780E0,2.769200358E0
5.528823542E0,2.137284040E0,-8.855629563E-1,8.591158986E-1,2.467850268E0
5.538790542E0,1.786498785E0,-4.528499842E-1,7.083498240E-1,1.974439285E0
5.548758542E0,1.287854671E0,-3.588835709E-3,6.501360536E-1,1.442657070E0
5.558726542E0,8.121292591E-1,3.913324475E-1,6.753737926E-1,1.126421226E0
5.568693542E0,5.161980391E-1,6.021165848E-1,7.287123799E-1,1.077045278E0
5.578661542E0,4.423422217E-1,5.956555605E-1,7.598201632E-1,1.061978751E0
5.588628542E0,5.129519105E-1,5.210105777E-1,7.980098724E-1,1.082308385E0
5.598596542E0,6.282320619E-1,4.986099303E-1,8.413918018E-1,1.162423137E0
5.608564542E0,6.992657185E-1,5.696271062E-1,8.543441296E-1,1.242316979E0
5.618531542E0,6.844421625E-1,7.313405871E-1,8.287575841E-1,1.300061253E0
5.628499542E0,5.993341804E-1,9.499450922E-1,7.880882025E-1,1.372107923E0
5.638467542E0,4.802331626E-1,1.225089312E0,7.456303835E-1,1.512425992E0
5.648434542E0,3.325230479E-1,1.491616607E0,7.447139621E-1,1.700026636E0
5.658402542E0,1.980135292E-1,1.599426985E0,7.557060719E-1,1.780019018E0
5.668369542E0,1.377411336E-1,1.423611760E0,6.740216017E-1,1.581122444E0
5.678337542E0,1.861422062E-1,1.115043759E0,5.428995490E-1,1.254077919E0
5.688305542E0,3.043146431E-1,8.364908695E-1,4.008310735E-1,9.762120294E-1
5.698272542E0,4.678924680E-1,6.976385117E-1,2.556508780E-1,8.780547967E-1
5.708240542E0,6.500564218E-1,6.476999521E-1,1.163939238E-1,9.250060135E-1
5.718207542E0,8.065297604E-1,6.482636333E-1,-1.310406160E-2,1.034846708E0
5.728175542E0,8.307881951E-1,6.256960034E-1,-2.346066236E-1,1.066182340E0
5.738143542E0,5.371490717E-1,6.278201938E-1,-5.147743821E-1,9.734885646E-1
5.748110542E0,-3.101918399E-1,8.457128406E-1,-6.717892885E-1,1.123721511E0
5.758078542E0,-1.201635122E0,9.238172770E-1,-7.510488033E-1,1.691579035E0
5.768045542E0,-1.738378167E0,9.009167552E-1,-8.885731101E-1,2.150156232E0
5.778013542E0,-1.964115262E0,9.190713763E-1,-1.090958953E0,2.427474489E0
5.787981542E0,-1.985521317E0,9.753295779E-1,-1.326354742E0,2.579298274E0
5.797948542E0,-1.921642423E0,9.606300592E-1,-1.549010396E0,2.648575640E0
5.807916542E0,-1.879632950E0,7.838329673E-1,-1.752038002E0,2.686457018E0
5.817883542E0,-1.967615366E0,5.088189840E-1,-1.945168734E0,2.813198960E0
5.827851542E0,-2.152786970E0,3.351939023E-1,-2.139715195E0,3.053723597E0
5.837819542E0,-2.335119009E0,3.788405359E-1,-2.357584715E0,3.339836317E0
5.847786542E0,-2.424682617E0,6.423802972E-1,-2.586173773E0,3.602781290E0
5.857754542E0,-2.393515587E0,1.024099708E0,-2.741520405E0,3.780691895E0
5.867722542E0,-2.249105453E0,1.453364491E0,-2.774150133E0,3.855729846E0
5.877689542E0,-2.043388605E0,1.808958769E0,-2.748047352E0,3.872923065E0
5.887657542E0,-1.819843769E0,2.010559797E0,-2.723294735E0,3.843242935E0
5.897624542E0,-1.627438068E0,2.071082592E0,-2.679009676E0,3.756997553E0
5.907592542E0,-1.429037571E0,1.973029494E0,-2.532194138E0,3.513829950E0
5.917560542E0,-1.180253744E0,1.770647526E0,-2.269365072E0,3.110982062E0
5.927527542E0,-8.091486096E-1,1.580072761E0,-1.982167959E0,2.660891057E0
5.937495542E0,-3.740960658E-1,1.530818462E0,-1.811161757E0,2.400762366E0
5.947462542E0,5.611044914E-2,1.656861782E0,-1.777006269E0,2.430244972E0
5.957430542E0,3.286510110E-1,1.820399880E0,-1.781422973E0,2.568138435E0
5.967398542E0,3.261740208E-1,1.552693605E0,-1.788780212E0,2.391021031E0
5.977365542E0,7.663836330E-2,1.010028958E0,-1.712922215E0,1.990008656E0
5.987333542E0,-2.398005724E-1,3.867356181E-1,-1.602871537E0,1.666213047E0
5.997301542E0,-5.214745998E-1,-1.454183608E-1,-1.430414200E0,1.529433569E0
6.007268542E0,-6.794030070E-1,-6.048700809E-1,-1.351542354E0,1.629147935E0
6.017236542E0,-6.804389954E-1,-9.394903779E-1,-1.370659113E0,1.795646346E0
6.027203542E0,-5.837692022E-1,-1.197456002E0,-1.410362601E0,1.940054130E0
6.037171542E0,-5.090836883E-1,-1.446151257E0,-1.368879199E0,2.055322340E0
6.047139542E0,-5.300403237E-1,-1.557673812E0,-1.171845675E0,2.020027904E0
6.057106542E0,-5.558206439E-1,-6.464148164E-1,-9.959009886E-1,1.310956705E0
6.067074542E0,-6.622291207E-1,-1.508621931E0,-8.832508326E-1,1.869390161E0
6.077042542E0,-8.279886246E-1,-2.785604954E0,-7.181687951E-1,2.993480673E0
6.087009542E0,-8.719957471E-1,-2.411240816E0,-6.046395302E-1,2.634397050E0
6.096977542E0,-5.722029805E-1,-2.329317331E0,-4.288443625E-1,2.436604803E0
6.106944542E0,-2.044494599E-1,-1.948946238E0,-2.442249954E-1,1.974800463E0
6.116912542E0,9.407485276E-2,-1.325696230E0,-1.266893297E-1,1.335054590E0
6.126880542E0,2.918291986E-1,-7.586326003E-1,-7.702510059E-2,8.164683518E-1
6.136847542E0,4.330024719E-1,-3.706579506E-1,-3.346296772E-2,5.709625445E-1
6.146815542E0,5.950741768E-1,-1.304147094E-1,7.231432945E-2,6.134742330E-1
6.156782542E0,8.447953463E-1,9.093021974E-3,2.421218008E-1,8.788542692E-1
6.166750542E0,1.169747472E0,6.493897736E-2,5.041115880E-1,1.275403745E0
6.176718542E0,1.489422679E0,2.729084902E-2,8.968420625E-1,1.738807175E0
6.186685542E0,1.722345471E0,-1.068219468E-1,1.446048141E0,2.251430673E0
6.196653542E0,1.792462707E0,-3.452172279E-1,2.010596275E0,2.715620532E0
6.206621542E0,1.585351586E0,-7.141494155E-1,2.424603462E0,2.983630505E0
6.216588542E0,6.031139493E-1,-1.252827048E0,2.764934540E0,3.094864304E0
6.226556542E0,-1.019711971E0,-1.993219852E0,2.964808941E0,3.715216002E0
6.236523542E0,-1.801040888E0,-1.987697244E0,2.601315022E0,3.736512873E0
6.246491542E0,-9.514958858E-1,-1.818070650E0,1.901346445E0,2.797470932E0
6.256459542E0,4.159235954E-1,-1.404262543E0,1.124529600E0,1.846486541E0
6.266426542E0,1.166789293E0,3.062565811E-2,3.296763599E-1,1.212856829E0
6.276394542E0,1.305320978E0,1.894968152E0,-1.729884595E-1,2.307529450E0
6.286362542E0,1.062555194E0,3.038866520E0,-4.869700670E-1,3.255898204E0
6.296329542E0,8.701136708E-1,3.252848625E0,-6.337353587E-1,3.426330761E0
6.306297542E0,8.311332464E-1,2.323462725E0,-5.031637549E-1,2.518419201E0
6.316265542E0,6.905817389E-1,6.903434396E-1,-2.170296609E-1,1.000289496E0
6.326232542E0,4.105738103E-1,-6.511560082E-1,7.907789201E-2,7.738399795E-1
6.336200917E0,2.668502927E-1,-1.001434326E0,1.328907758E-1,1.044863506E0
6.346167917E0,1.780304164E-1,-6.825472713E-1,1.500657648E-1,7.211694256E-1
6.356135917E0,1.563479900E-1,-3.780216277E-1,1.756984591E-1,4.452134247E-1
6.366103917E0,2.433023304E-1,-4.827730656E-1,1.784796119E-1,5.693161061E-1
6.376070917E0,3.614426255E-1,-9.637412429E-1,1.718737781E-1,1.043541351E0
6.386038917E0,3.968072832E-1,-1.426599979E0,1.920040846E-1,1.493154074E0
6.396006917E0,3.325846195E-1,-1.548696041E0,2.251506597E-1,1.599926491E0
6.405973917E0,2.549856901E-1,-1.448872805E0,2.401059121E-1,1.490604225E0
6.415941917E0,1.239006519E-1,-1.205576539E0,2.754864693E-1,1.242843095E0
6.425908917E0,-8.838498592E-2,-9.227357507E-1,3.331300616E-1,9.850019336E-1
6.435876917E0,-3.406874239E-1,-6.192654371E-1,3.909360170E-1,8.077057458E-1
6.445844917E0,-5.509791374E-1,-3.128370941E-1,4.333921373E-1,7.676417146E-1
6.455811917E0,-6.707593799E-1,-4.860415310E-2,4.964957535E-1,8.359357288E-1
6.465779917E0,-6.720339656E-1,1.816546172E-1,6.140953302E-1,9.283001268E-1
6.475747917E0,-5.782501698E-1,4.572451115E-1,7.738766670E-1,1.068799067E0
6.485714917E0,-4.012239575E-1,7.221984863E-1,9.147192836E-1,1.232583744E0
6.495682917E0,-1.788375080E-1,9.030019045E-1,1.016703606E0,1.371525252E0
6.505650917E0,3.552644700E-2,9.677854180E-1,1.084666729E0,1.454088256E0
6.515617917E0,2.426499724E-1,8.445646763E-1,1.121356368E0,1.424643326E0
6.525585917E0,5.177223086E-1,3.839174509E-1,1.095640659E0,1.271163818E0
6.535552917E0,8.374763727E-1,-3.611201644E-1,9.894975424E-1,1.345689353E0
6.545520917E0,1.113487244E0,-1.063229799E0,8.847863078E-1,1.775713451E0
6.555488917E0,1.281069040E0,-1.495787621E0,8.506183028E-1,2.145243573E0
6.565455917E0,1.338060737E0,-1.678246856E0,9.066584110E-1,2.330010412E0
6.575423917E0,1.322310209E0,-1.708660483E0,9.465125799E-1,2.358794396E0
6.585391917E0,1.273821831E0,-1.650068760E0,9.888044000E-1,2.307180771E0
6.595358917E0,1.249041677E0,-1.538798928E0,1.038898468E0,2.237703572E0
6.605326917E0,1.266233683E0,-1.422868848E0,1.065377235E0,2.182414294E0
6.615294917E0,1.243617773E0,-1.344746351E0,1.035060167E0,2.103872017E0
6.625261917E0,1.121117949E0,-1.345367670E0,9.393615127E-1,1.987289530E0
6.635229917E0,9.474850893E-1,-1.300642014E0,8.725405931E-1,1.830498492E0
6.645196917E0,8.161712885E-1,-1.126649499E0,8.834779263E-1,1.648031526E0
6.655164917E0,8.619022369E-1,-9.417021275E-1,9.319681525E-1,1.580583120E0
6.665132917E0,1.187302113E0,-8.373128772E-1,9.579443336E-1,1.740240359E0
6.675099917E0,1.698303461E0,-7.529865503E-1,9.302281141E-1,2.077630317E0
6.685067917E0,2.019311190E0,-6.402956843E-1,7.776154280E-1,2.256608517E0
6.695035917E0,1.966007233E0,-5.731298923E-1,5.767067671E-1,2.127499238E0
6.705002917E0,1.623037577E0,-5.104734302E-1,4.690862596E-1,1.764901135E0
6.714970917E0,1.173064947E0,-3.697953224E-1,5.252133012E-1,1.337415030E0
6.724938917E0,7.828713059E-1,-1.419256479E-1,6.998139024E-1,1.059608356E0
6.734905917E0,5.524586439E-1,9.289544821E-2,8.878308535E-1,1.049801763E0
6.744873917E0,4.999066889E-1,2.440529913E-1,1.012627602E0,1.155371464E0
6.754840917E0,5.688417554E-1,3.226852715E-1,1.083875179E0,1.265895782E0
6.764808917E0,6.701750159E-1,3.637496233E-1,1.140254021E0,1.371724306E0
6.774776917E0,7.280685306E-1,3.958983123E-1,1.169513106E0,1.433380677E0
6.784743917E0,7.336273193E-1,4.173444808E-1,1.145151258E0,1.422588086E0
6.794711917E0,7.106426358E-1,4.643800259E-1,1.062571049E0,1.360043749E0
6.804679917E0,6.989468336E-1,6.246514916E-1,9.203809500E-1,1.313703641E0
6.814646917E0,6.696192026E-1,9.737123847E-1,7.515805364E-1,1.400492409E0
6.824614917E0,5.416705012E-1,1.397904754E0,5.921916962E-1,1.611904351E0
6.834582917E0,3.481021225E-1,1.576279044E0,4.646767676E-1,1.679808088E0
6.844549917E0,1.942427754E-1,1.398715973E0,3.634710610E-1,1.458165917E0
6.854517917E0,1.400490403E-1,9.778023362E-1,2.868762910E-1,1.028595717E0
6.864485917E0,1.802411973E-1,5.063578486E-1,2.289106995E-1,5.841962585E-1
6.874452917E0,2.609910369E-1,1.848939210E-1,1.685668975E-1,3.615478977E-1
6.884420917E0,3.041752577E-1,9.940513223E-2,5.311540887E-2,3.243843621E-1
6.894387917E0,2.074319720E-1,1.992946416E-1,-1.713045537E-1,3.348008771E-1
6.904355917E0,-1.106962040E-1,4.778242707E-1,-4.123571217E-1,6.407870778E-1
6.914323917E0,-6.900115013E-1,8.061513305E-1,-5.683867931E-1,1.203768826E0
6.924290917E0,-1.292251587E0,9.597640634E-1,-7.188453078E-1,1.762895288E0
6.934258917E0,-1.727669239E0,1.046953917E0,-9.169149399E-1,2.218487437E0
6.944226917E0,-1.922870159E0,1.062391639E0,-1.123111486E0,2.467282929E0
6.954193917E0,-1.907043219E0,9.441363215E-1,-1.355086207E0,2.522789302E0
6.964161917E0,-1.808689713E0,7.086566687E-1,-1.614073634E0,2.525625952E0
6.974129917E0,-1.756634712E0,4.294289351E-1,-1.853382945E0,2.589440685E0
6.984096917E0,-1.826292872E0,1.866586357E-1,-2.062963963E0,2.761522662E0
6.994064917E0,-1.973863363E0,5.426564813E-2,-2.264915228E0,3.004816521E0
7.004032917E0,-2.098504782E0,9.866932780E-2,-2.478907585E0,3.249375443E0
7.013999917E0,-2.142058372E0,3.130127788E-1,-2.641650200E0,3.415363355E0
7.023967917E0,-2.127065420E0,6.456061602E-1,-2.744762421E0,3.531987452E0
7.033934917E0,-2.104970932E0,1.033366323E0,-2.768799543E0,3.628360441E0
7.043902917E0,-2.059250116E0,1.435491681E0,-2.751139879E0,3.724233887E0
7.053870917E0,-1.958250403E0,1.784286141E0,-2.716440916E0,3.794400207E0
7.063837917E0,-1.787657142E0,1.975347400E0,-2.622045279E0,3.738025796E0
7.073805917E0,-1.516142845E0,2.005905390E0,-2.439324379E0,3.503234075E0
7.083773917E0,-1.129141092E0,1.894006729E0,-2.199285507E0,3.114334253E0
7.093740917E0,-7.015203834E-1,1.839609742E0,-1.995371342E0,2.803177062E0
7.103708917E0,-2.400195748E-1,2.030272961E0,-1.884075999E0,2.780172668E0
7.113676917E0,1.897513270E-1,2.272412062E0,-1.878823996E0,2.954630561E0
7.123643917E0,4.602387547E-1,2.338236332E0,-1.906993032E0,3.052178120E0
7.133611917E0,4.873801172E-1,2.062597752E0,-1.864335299E0,2.822692858E0
7.143579917E0,3.210082054E-1,1.418220162E0,-1.768612981E0,2.289625859E0
7.153546917E0,4.231233522E-2,5.871462226E-1,-1.636962652E0,1.739591258E0
7.163514917E0,-2.481471896E-1,-1.368977726E-1,-1.433407426E0,1.461155322E0
7.173482917E0,-4.399815500E-1,-6.592237949E-1,-1.296663880E0,1.519702930E0
7.183449917E0,-5.123633146E-1,-1.001852274E0,-1.302378416E0,1.721166373E0
7.193417917E0,-5.200947523E-1,-1.156843901E0,-1.326135874E0,1.835053873E0
7.203384917E0,-5.516409874E-1,-1.362348676E0,-1.262498021E0,1.937576565E0
7.213352917E0,-5.985984206E-1,-1.577094555E0,-1.114847541E0,2.021987226E0
7.223320917E0,-6.023955345E-1,-1.646904826E0,-9.496383071E-1,1.994238903E0
7.233287917E0,-5.672129989E-1,-1.851365566E0,-8.046432137E-1,2.096839466E0
7.243255917E0,-4.940378964E-1,-1.966196299E0,-6.955206990E-1,2.143303611E0
7.253223917E0,-3.916758597E-1,-1.805714130E0,-6.171186566E-1,1.948037201E0
7.263190917E0,-2.602997124E-1,-1.870668411E0,-5.038134456E-1,1.954733801E0
7.273158917E0,-8.206709474E-2,-1.606938839E0,-3.535731137E-1,1.647422650E0
7.283126917E0,1.355227530E-1,-1.155168176E0,-1.767890453E-1,1.176449870E0
7.293093917E0,3.693130910E-1,-6.794233918E-1,3.228031844E-2,7.739834130E-1
7.303061917E0,6.272287965E-1,-2.942051589E-1,2.412646860E-1,7.336084019E-1
7.313029917E0,9.062113762E-1,-5.635550246E-2,4.581417739E-1,1.016999944E0
7.322996917E0,1.170540810E0,2.208657376E-2,7.292869687E-1,1.379316166E0
7.332964917E0,1.362933517E0,-5.225998163E-2,1.088501096E0,1.745036822E0
7.342931500E0,1.420906305E0,-2.461961657E-1,1.481441259E0,2.067427262E0
7.352899500E0,1.315697551E0,-4.672086239E-1,1.823243022E0,2.296423101E0
7.362867500E0,1.003303170E0,-7.446117401E-1,2.108275652E0,2.450691763E0
7.372834500E0,3.866426945E-1,-1.249274731E0,2.375720024E0,2.711867541E0
7.382802500E0,-4.607282877E-1,-2.061617851E0,2.568444014E0,3.325574142E0
7.392770500E0,-1.114202380E0,-2.651992321E0,2.441291571E0,3.772852336E0
7.402737500E0,-1.057610750E0,-2.673512697E0,1.908342004E0,3.450794089E0
7.412705500E0,-1.394704878E-1,-2.371724129E0,1.207678318E0,2.665148078E0
7.422673500E0,8.312762380E-1,-1.228411674E0,5.097125173E-1,1.568382057E0
7.432640500E0,1.259048223E0,7.943232059E-1,-1.111278608E-1,1.492816528E0
7.442608500E0,1.284605503E0,2.411015034E0,-4.815559983E-1,2.774004501E0
7.452576500E0,1.092411637E0,3.071185350E0,-7.135344744E-1,3.336865908E0
7.462543500E0,9.249245524E-1,2.744887114E0,-8.002930880E-1,3.005055693E0
7.472511500E0,8.395882845E-1,1.716743827E0,-7.061703205E-1,2.037349841E0
7.482478500E0,7.470319867E-1,3.796968162E-1,-4.107509255E-1,9.332431539E-1
7.492446500E0,6.078205109E-1,-6.769191623E-1,6.753902882E-2,9.122646798E-1
7.502414500E0,5.649126768E-1,-9.148049355E-1,3.275159895E-1,1.123948898E0
7.512381500E0,5.166220069E-1,-6.366669536E-1,4.849898815E-1,9.526060534E-1
7.522349500E0,4.813566804E-1,-4.309934080E-1,6.087632179E-1,8.877230576E-1
7.532317500E0,5.877882242E-1,-7.459458113E-1,6.851745844E-1,1.171065481E0
7.542284500E0,6.435161829E-1,-1.502997518E0,7.337983251E-1,1.792086660E0
7.552252500E0,2.708581090E-1,-1.776477218E0,8.503846526E-1,1.988061739E0
7.562220500E0,-1.503072232E-1,-1.659756780E0,7.818793654E-1,1.840847677E0
7.572187500E0,-4.682665169E-1,-1.468034267E0,6.153068542E-1,1.659216883E0
7.582155500E0,-7.218940258E-1,-1.219498515E0,5.103207827E-1,1.506232025E0
7.592123500E0,-9.348591566E-1,-9.257745743E-1,4.501049221E-1,1.390544730E0
7.602090500E0,-1.066852093E0,-5.714867711E-1,4.038010836E-1,1.275862780E0
7.612058500E0,-1.074604750E0,-1.819401234E-1,3.874946535E-1,1.156732330E0
7.622025500E0,-9.506060481E-1,2.467094958E-1,4.180802703E-1,1.067383973E0
7.631993500E0,-6.931673884E-1,6.736454368E-1,4.874770641E-1,1.082549348E0
7.641961500E0,-3.203557134E-1,1.042313218E0,5.551424026E-1,1.223612567E0
7.651928500E0,9.252265841E-2,1.355731606E0,5.950568914E-1,1.483462617E0
7.661896500E0,4.244393706E-1,1.561733603E0,6.123440266E-1,1.730354251E0
7.671864500E0,6.132494807E-1,1.601029873E0,6.299217939E-1,1.826519380E0
7.681831500E0,6.802969575E-1,1.476633549E0,6.739236116E-1,1.759949892E0
7.691799500E0,6.898242235E-1,1.148632526E0,6.992890835E-1,1.511363412E0
7.701767500E0,8.164218068E-1,4.529524744E-1,6.830872297E-1,1.156857240E0
7.711734500E0,1.077751875E0,-4.658485949E-1,6.457473636E-1,1.339982714E0
7.721702500E0,1.298748493E0,-1.169322610E0,6.790611148E-1,1.874883200E0
7.731669500E0,1.399673700E0,-1.559031606E0,7.690137625E-1,2.231826199E0
7.741637500E0,1.379180670E0,-1.703587532E0,7.670507431E-1,2.322222350E0
7.751605500E0,1.285614371E0,-1.655864239E0,7.007492185E-1,2.210371045E0
7.761572500E0,1.175272226E0,-1.482155085E0,6.216282845E-1,1.991097744E0
7.771540500E0,1.105133414E0,-1.201099038E0,5.850900412E-1,1.733865369E0
7.781508500E0,1.041342378E0,-8.805316687E-1,5.727433562E-1,1.479109502E0
7.791475500E0,9.547714591E-1,-5.773454309E-1,5.819014907E-1,1.258382148E0
7.801443500E0,8.527334929E-1,-3.101600409E-1,6.282351613E-1,1.103645359E0
7.811411500E0,7.796970606E-1,-1.373861134E-1,7.179458737E-1,1.068760370E0
7.821378500E0,7.971221209E-1,-1.510065794E-1,8.523777127E-1,1.176755891E0
7.831346500E0,9.445986152E-1,-3.837403953E-1,9.725889564E-1,1.409060862E0
7.841314500E0,1.281714797E0,-7.665644884E-1,1.028656840E0,1.813435643E0
7.851281500E0,1.666422367E0,-1.101609588E0,1.018384814E0,2.242234336E0
7.861249500E0,1.825418472E0,-1.204147100E0,9.388312101E-1,2.379816564E0
7.871216500E0,1.689721942E0,-1.098984003E0,8.482953310E-1,2.186899872E0
7.881184500E0,1.397601724E0,-8.629547358E-1,8.115690351E-1,1.832109645E0
7.891152500E0,1.108544111E0,-4.902996123E-1,8.484696746E-1,1.479582558E0
7.901119500E0,9.668615460E-1,-5.667547882E-2,9.004620314E-1,1.322446683E0
7.911087500E0,1.036209941E0,2.719678879E-1,8.767662048E-1,1.384346977E0
7.921055500E0,1.242963195E0,3.651987612E-1,7.935884595E-1,1.519246617E0
7.931022500E0,1.378859401E0,2.638936937E-1,7.600055933E-1,1.596402716E0
7.940990500E0,1.309674501E0,1.233586743E-1,7.897014618E-1,1.534305400E0
7.950958500E0,1.019611597E0,1.192634404E-1,8.615776300E-1,1.340204309E0
7.960925500E0,6.085450649E-1,4.002594352E-1,9.357871413E-1,1.185846653E0
7.970893500E0,2.303398699E-1,9.047787786E-1,1.006943107E0,1.373177160E0
7.980860500E0,1.129461080E-2,1.373626947E0,1.047767282E0,1.727655879E0
7.990828500E0,-4.607246816E-2,1.644956231E0,1.037185431E0,1.945188241E0
8.000796500E0,-4.633146804E-3,1.652209401E0,9.276698232E-1,1.894832096E0
8.010763500E0,1.249202266E-1,1.453918934E0,7.802036405E-1,1.654751658E0
8.020731500E0,3.147561848E-1,1.113254547E0,6.041929126E-1,1.305165207E0
8.030699500E0,5.039302707E-1,7.623171210E-1,4.234741926E-1,1.007176004E0
8.040666500E0,6.788874269E-1,5.053367019E-1,2.722878754E-1,8.890410607E-1
8.050634500E0,8.431821465E-1,4.218861461E-1,1.626399904E-1,9.567631990E-1
8.060602500E0,9.662740231E-1,4.753110111E-1,3.613452613E-2,1.077456147E0
8.070569500E0,9.639386535E-1,5.842103362E-1,-2.621513903E-1,1.157239299E0
8.080537500E0,7.432275414E-1,7.860840559E-1,-5.492433310E-1,1.213253295E0
8.090504500E0,8.999370039E-2,1.053613901E0,-6.576102376E-1,1.245251920E0
8.100472500E0,-7.895991802E-1,1.130743027E0,-6.570208669E-1,1.527652800E0
8.110440500E0,-1.380447745E0,1.043551922E0,-7.521057129E-1,1.886875617E0
8.120407500E0,-1.688346386E0,1.041088700E0,-9.696484208E-1,2.207849012E0
8.130375500E0,-1.809222817E0,1.110513330E0,-1.249861002E0,2.463469014E0
8.140343500E0,-1.829008222E0,1.126166582E0,-1.522986054E0,2.633060722E0
8.150310500E0,-1.796008945E0,1.003738046E0,-1.731639504E0,2.689184554E0
8.160278500E0,-1.742324710E0,7.154061198E-1,-1.881952047E0,2.662563580E0
8.170246500E0,-1.796145916E0,4.409419298E-1,-2.017274618E0,2.736780375E0
8.180213500E0,-1.982443690E0,4.107805789E-1,-2.184160709E0,2.978150714E0
8.190181500E0,-2.196686983E0,6.056168079E-1,-2.448010921E0,3.344392754E0
8.200148500E0,-2.334156036E0,8.014888763E-1,-2.741834164E0,3.688946110E0
8.210116500E0,-2.358761072E0,9.198302031E-1,-2.885916471E0,3.839056561E0
8.220084500E0,-2.302682638E0,1.086127281E0,-2.892760277E0,3.853580390E0
8.230051500E0,-2.193824053E0,1.333056688E0,-2.840829849E0,3.828866456E0
8.240019500E0,-2.051603079E0,1.554312587E0,-2.775300264E0,3.785135977E0
8.249987500E0,-1.856558442E0,1.657430172E0,-2.624557257E0,3.616930303E0
8.259954500E0,-1.635724068E0,1.592530012E0,-2.360526085E0,3.283874002E0
8.269922500E0,-1.421108484E0,1.523393154E0,-2.038297892E0,2.914607061E0
8.279890500E0,-1.188535452E0,1.676849008E0,-1.760416150E0,2.706197357E0
8.289857500E0,-9.003089070E-1,2.037722111E0,-1.609369397E0,2.748260793E0
8.299825500E0,-6.109689474E-1,2.373821974E0,-1.536569953E0,2.892984797E0
8.309792500E0,-3.953693807E-1,2.362536430E0,-1.462624907E0,2.806629108E0
8.319760500E0,-3.173499405E-1,1.818705797E0,-1.375743270E0,2.302405548E0
8.329728500E0,-3.602439165E-1,1.030686736E0,-1.277156949E0,1.680244238E0
8.339695375E0,-4.720309079E-1,2.905351520E-1,-1.175657749E0,1.299767285E0
8.349663375E0,-5.543056130E-1,-3.065448701E-1,-1.135929704E0,1.300600154E0
8.359631375E0,-5.521582961E-1,-7.503463030E-1,-1.237203598E0,1.548732095E0
8.369598375E0,-5.129872561E-1,-1.042309642E0,-1.378409863E0,1.802658887E0
8.379566375E0,-4.981616735E-1,-1.183594823E0,-1.488619924E0,1.965973305E0
8.389533375E0,-5.275516510E-1,-1.290722728E0,-1.464872122E0,2.022406052E0
8.399501375E0,-5.809096694E-1,-1.410159349E0,-1.336176515E0,2.027652118E0
8.409469375E0,-6.365418434E-1,-1.506898642E0,-1.113700747E0,1.978953862E0
8.419436375E0,-6.785558462E-1,-1.769096971E0,-8.713878989E-1,2.085535662E0
8.429404375E0,-6.009825468E-1,-1.812844157E0,-6.852725744E-1,2.029084143E0
8.439372375E0,-4.143908620E-1,-1.631115556E0,-5.360324979E-1,1.766235710E0
8.449339375E0,-1.945988089E-1,-1.341125131E0,-3.658617437E-1,1.403688045E0
8.459307375E0,1.691609435E-2,-9.946921468E-1,-1.775869280E-1,1.010562090E0
8.469274375E0,2.000418603E-1,-6.555454135E-1,-1.789566875E-2,6.856214626E-1
8.479242375E0,3.734871447E-1,-4.030793607E-1,1.196033359E-1,5.623793882E-1
8.489210375E0,6.060354114E-1,-2.394440323E-1,2.647936046E-1,7.033690478E-1
8.499177375E0,9.204684496E-1,-1.940035820E-1,4.707867205E-1,1.051921904E0
8.509145375E0,1.291504025E0,-2.899573743E-1,7.647147775E-1,1.528674791E0
8.519113375E0,1.627855062E0,-4.572806060E-1,1.189545512E0,2.067374224E0
8.529080375E0,1.836627364E0,-7.395686507E-1,1.700251222E0,2.609792344E0
8.539048375E0,1.866021156E0,-1.028435588E0,2.172748089E0,3.043115011E0
8.549015375E0,1.617028594E0,-1.206736088E0,2.554198742E0,3.254984589E0
8.558983375E0,3.723804951E-1,-1.357511401E0,2.897640705E0,3.221463347E0
8.568951375E0,-1.737424374E0,-2.499705076E0,3.148408413E0,4.379457096E0
8.578918375E0,-2.240720987E0,-3.115432024E0,2.711590528E0,4.698879700E0
8.588886375E0,-7.356851101E-1,-3.173249483E0,1.890538096E0,3.766281874E0
8.598854375E0,7.274467945E-1,-2.321454525E0,7.895940542E-1,2.557692069E0
8.608821375E0,1.345849633E0,-7.598773390E-2,-2.720115185E-1,1.375163858E0
8.618789375E0,1.371972561E0,1.749863982E0,-8.040658236E-1,2.364498787E0
8.628757375E0,1.084100962E0,2.442641735E0,-9.812164903E-1,2.846850776E0
8.638724375E0,9.014632106E-1,2.129829884E0,-9.283780456E-1,2.492127013E0
8.648692375E0,8.567770720E-1,9.704173803E-1,-6.971578002E-1,1.470308077E0
8.658659375E0,7.245183587E-1,-3.173453808E-1,-3.019098043E-1,8.466312496E-1
8.668627375E0,6.097440720E-1,-6.511128545E-1,-1.095155701E-1,8.987376940E-1
8.678595375E0,5.350139141E-1,-1.006204262E-1,3.134543309E-3,5.444025935E-1
8.688562375E0,4.062474370E-1,7.041273713E-1,1.493480504E-1,8.265211281E-1
8.698530375E0,2.545402050E-1,1.287694931E0,2.937491536E-1,1.345079000E0
8.708497375E0,2.621206343E-1,1.090535522E0,3.369106352E-1,1.171103636E0
8.718465375E0,3.744631708E-1,6.002482027E-2,2.359006405E-1,4.466259705E-1
8.728433375E0,3.475744724E-1,-9.091685414E-1,1.572226733E-1,9.859586298E-1
8.738400375E0,2.512751222E-1,-1.372713566E0,1.847746670E-1,1.407701459E0
8.748368375E0,9.515823424E-2,-1.431049109E0,3.184127212E-1,1.469130117E0
8.758336375E0,-1.269515306E-1,-1.236574888E0,4.843433499E-1,1.334099931E0
8.768303375E0,-3.733625114E-1,-8.923847079E-1,5.764874816E-1,1.126094067E0
8.778271375E0,-5.686401129E-1,-4.685974717E-1,5.721742511E-1,9.329086462E-1
8.788238375E0,-6.369162798E-1,-1.185447071E-2,5.214342475E-1,8.232232689E-1
8.798206375E0,-5.390567780E-1,4.208481908E-1,4.996317327E-1,8.469517565E-1
8.808174375E0,-2.974799573E-1,8.539204597E-1,5.281329751E-1,1.047186190E0
8.818141375E0,-7.028135005E-3,1.325167537E0,6.020191908E-1,1.455522415E0
8.828109375E0,2.276587635E-1,1.708369732E0,6.676512361E-1,1.848273201E0
8.838077375E0,3.741416931E-1,1.876210928E0,7.248306274E-1,2.045856518E0
8.848044375E0,4.562446773E-1,1.752442360E0,7.493628860E-1,1.959785234E0
8.858012375E0,6.046046019E-1,1.144752979E0,7.203522921E-1,1.481524057E0
8.867979375E0,9.106867313E-1,7.224738598E-2,6.589673162E-1,1.126413748E0
8.877947375E0,1.228869319E0,-9.967966080E-1,6.439263225E-1,1.708322098E0
8.887915375E0,1.425356865E0,-1.672613621E0,6.950533390E-1,2.304859575E0
8.897882375E0,1.470577359E0,-1.910873652E0,8.112896681E-1,2.544057155E0
8.907850375E0,1.406546712E0,-1.840827465E0,9.143893719E-1,2.490607824E0
8.917818375E0,1.261180162E0,-1.606832266E0,9.379463792E-1,2.247716340E0
8.927785375E0,1.087767720E0,-1.244383454E0,9.179691076E-1,1.890607330E0
8.937753375E0,9.389401078E-1,-7.735946774E-1,9.164289832E-1,1.523121575E0
8.947720375E0,8.249949813E-1,-2.790459394E-1,9.337580204E-1,1.276866241E0
8.957688375E0,7.182049155E-1,8.034257591E-2,9.261525869E-1,1.174747566E0
8.967656375E0,6.118972301E-1,1.746016890E-1,9.061177373E-1,1.107227765E0
8.977623375E0,5.485864282E-1,-8.055204526E-3,9.298486114E-1,1.079643643E0
8.987591375E0,5.440745950E-1,-3.714687824E-1,1.023505807E0,1.217197748E0
8.997559375E0,6.171395183E-1,-7.243498564E-1,1.095172524E0,1.450843464E0
9.007526375E0,8.192144036E-1,-9.761884809E-1,1.099245667E0,1.682972735E0
9.017494375E0,1.199358106E0,-1.116566539E0,1.106521964E0,1.977263654E0
9.027461375E0,1.629281163E0,-1.083036184E0,1.089765310E0,2.239444779E0
9.037429375E0,1.857580185E0,-8.859850168E-1,1.013615131E0,2.294120578E0
9.047397375E0,1.794013739E0,-6.460115314E-1,9.203125834E-1,2.117260363E0
9.057364375E0,1.533203959E0,-4.520215392E-1,8.611992002E-1,1.815682218E0
9.067332375E0,1.250012875E0,-3.171811402E-1,8.315020800E-1,1.534448361E0
9.077300375E0,1.102771759E0,-1.764682531E-1,7.994881868E-1,1.373472955E0
9.087267375E0,1.163259387E0,-3.002341278E-2,7.644812465E-1,1.392302188E0
9.097235375E0,1.340458155E0,7.211973518E-2,7.471658587E-1,1.536322278E0
9.107202375E0,1.492556095E0,1.129869744E-1,7.541758418E-1,1.676087991E0
9.117170375E0,1.452647090E0,1.193330213E-1,7.878991961E-1,1.656867249E0
9.127138375E0,1.162682414E0,2.291876674E-1,8.400966525E-1,1.452625130E0
9.137105375E0,7.053662539E-1,4.631764889E-1,8.904599547E-1,1.226781538E0
9.147073375E0,2.741136253E-1,8.485154510E-1,9.091129303E-1,1.273421796E0
9.157040375E0,3.120750375E-2,1.293431401E0,8.667417765E-1,1.557298945E0
9.167008375E0,-5.925510079E-2,1.656872392E0,7.897920609E-1,1.836439160E0
9.176976375E0,-9.108972549E-2,1.815728903E0,7.175780535E-1,1.954504298E0
9.186943375E0,-8.358178288E-2,1.690642834E0,6.383657455E-1,1.809079857E0
9.196911375E0,1.593069173E-2,1.350964069E0,5.375579000E-1,1.454072281E0
9.206879375E0,2.112068087E-1,9.291867018E-1,4.192930758E-1,1.041058560E0
9.216846375E0,4.585963786E-1,6.139358282E-1,2.834447026E-1,8.170487984E-1
9.226814375E0,6.783847213E-1,5.079517961E-1,1.430824846E-1,8.594727771E-1
9.236781375E0,7.682746649E-1,5.489706397E-1,-8.644364774E-2,9.482021030E-1
9.246749375E0,6.192958951E-1,6.228113770E-1,-3.974164128E-1,9.640338284E-1
9.256717375E0,-1.367620192E-2,8.521888852E-1,-5.908674002E-1,1.037081105E0
9.266684375E0,-8.944414854E-1,9.562286735E-1,-7.076720595E-1,1.488354323E0
9.276652375E0,-1.523032904E0,9.198802710E-1,-8.938171268E-1,1.991159962E0
9.286619375E0,-1.839916825E0,9.079835415E-1,-1.136443853E0,2.345470671E0
9.296587375E0,-1.889644146E0,9.374359846E-1,-1.416047812E0,2.540616584E0
9.306555375E0,-1.769667625E0,8.763377070E-1,-1.686286807E0,2.596777710E0
9.316522375E0,-1.633220553E0,6.651237011E-1,-1.892267227E0,2.586595093E0
9.326490375E0,-1.617266655E0,3.788958490E-1,-2.035909176E0,2.627553933E0
9.336458375E0,-1.758258939E0,2.017050982E-1,-2.180494070E0,2.808329367E0
9.346425917E0,-1.941187143E0,2.570244670E-1,-2.359856129E0,3.066462139E0
9.356393917E0,-2.050449371E0,5.545467138E-1,-2.540155172E0,3.311231339E0
9.366360917E0,-2.073230505E0,9.680174589E-1,-2.630524635E0,3.486402499E0
9.376328917E0,-2.032227993E0,1.432773471E0,-2.640907526E0,3.627283142E0
9.386296917E0,-1.948973894E0,1.828628778E0,-2.631130219E0,3.750363806E0
9.396263917E0,-1.840347290E0,2.050664186E0,-2.668042421E0,3.835433758E0
9.406231917E0,-1.712793112E0,2.085308075E0,-2.716037035E0,3.828710904E0
9.416198917E0,-1.573276281E0,1.954462171E0,-2.687188625E0,3.676425348E0
9.426166917E0,-1.392336726E0,1.662721515E0,-2.509685993E0,3.316891343E0
9.436134917E0,-1.107436299E0,1.426197886E0,-2.200800657E0,2.846748865E0
9.446101917E0,-7.413957119E-1,1.516010523E0,-1.907472014E0,2.546842161E0
9.456069917E0,-3.086296320E-1,1.961049795E0,-1.770089149E0,2.659733849E0
9.466037917E0,1.027797908E-1,2.495233774E0,-1.726003170E0,3.035760566E0
9.476004917E0,3.207906783E-1,2.598038435E0,-1.702784181E0,3.122848753E0
9.485972917E0,2.546830177E-1,2.026564360E0,-1.670014858E0,2.638328291E0
9.495939917E0,-2.675399184E-2,1.050529599E0,-1.602757215E0,1.916548697E0
9.505907917E0,-3.634484410E-1,3.026084974E-2,-1.516558051E0,1.559794477E0
9.515875917E0,-6.899269819E-1,-1.053469181E0,-1.429551005E0,1.905101738E0
9.525842917E0,-1.144686103E0,-1.625362039E0,-1.495428920E0,2.487652646E0
9.535810917E0,-9.977309108E-1,-7.890026569E-1,-1.477463484E0,1.949587266E0
9.545777917E0,-7.326120734E-1,-8.647824079E-2,-1.460667968E0,1.636383161E0
9.555745917E0,-6.040839553E-1,-1.414317787E-1,-1.353807092E0,1.489199119E0
9.565713917E0,-5.115192533E-1,-6.985114813E-1,-1.137999296E0,1.429899519E0
9.575680917E0,-4.151711762E-1,-1.271575570E0,-9.695850015E-1,1.652079481E0
9.585648917E0,-5.417436957E-1,-2.498472691E0,-7.997322083E-1,2.678698121E0
9.595615917E0,-6.690718532E-1,-2.702331066E0,-6.470787525E-1,2.858139473E0
9.605583917E0,-5.381473303E-1,-2.635748386E0,-4.620285928E-1,2.729513240E0
9.615551917E0,-3.037523627E-1,-2.241945982E0,-2.883417606E-1,2.280729764E0
9.625518917E0,-8.128417283E-2,-1.669313788E0,-1.490899622E-1,1.677928323E0
9.635486917E0,1.174598113E-1,-1.118522882E0,-4.171797261E-2,1.125446860E0
9.645454917E0,3.016051352E-1,-7.109410167E-1,6.093982607E-2,7.746718332E-1
9.655421917E0,5.264366865E-1,-4.589383006E-1,1.851459295E-1,7.225226390E-1
9.665389917E0,8.289051652E-1,-3.020962775E-1,3.724563122E-1,9.576375297E-1
9.675356917E0,1.208999515E0,-2.220586687E-1,6.591120362E-1,1.394782619E0
9.685324917E0,1.549099207E0,-2.234557569E-1,1.093872428E0,1.909501955E0
9.695292917E0,1.767815828E0,-3.553269804E-1,1.577134132E0,2.395575534E0
9.705259917E0,1.818556070E0,-5.541190505E-1,1.970750570E0,2.738257094E0
9.715227917E0,1.621142864E0,-7.324264646E-1,2.267583847E0,2.882098058E0
9.725194917E0,8.638741970E-1,-9.805073738E-1,2.524636507E0,2.842791380E0
9.735162917E0,-6.130803227E-1,-1.585455179E0,2.728328466E0,3.214546909E0
9.745130917E0,-1.612843990E0,-1.793709874E0,2.406500816E0,3.407331365E0
9.755097917E0,-1.043694019E0,-1.782109380E0,1.601835370E0,2.613634940E0
9.765065917E0,1.704498082E-1,-1.652203441E0,7.391371727E-1,1.818008005E0
9.775032917E0,1.022975802E0,-4.809518158E-1,-6.905602664E-2,1.132502926E0
9.785000917E0,1.318888783E0,1.487994313E0,-5.893567801E-1,2.073869840E0
9.794968917E0,1.172043681E0,2.860418558E0,-8.792240024E-1,3.213831913E0
9.804935917E0,9.437613487E-1,3.203376532E0,-9.912103415E-1,3.483504647E0
9.814903917E0,8.073707223E-1,2.414510012E0,-8.505395055E-1,2.684236117E0
9.824871917E0,6.368451715E-1,8.752279878E-1,-5.005207658E-1,1.192525404E0
9.834838917E0,4.706585705E-1,-5.733636022E-1,-1.105652563E-2,7.418810936E-1
9.844806917E0,5.163349509E-1,-1.063708544E0,2.078973502E-1,1.200541110E0
9.854773917E0,6.346914768E-1,-8.820189238E-1,3.148147464E-1,1.131326203E0
9.864741917E0,7.517960072E-1,-6.278203726E-1,4.222026169E-1,1.066588349E0
9.874709917E0,7.996473908E-1,-6.082724929E-1,5.330476165E-1,1.137352688E0
9.884676917E0,7.079219818E-1,-8.380942941E-1,6.828354001E-1,1.292215060E0
9.894644917E0,2.639903426E-1,-8.400567770E-1,9.574304819E-1,1.300791842E0
9.904611917E0,-1.666408777E-1,-6.808260083E-1,1.100026011E0,1.304358257E0
9.914579917E0,-3.899117708E-1,-6.299601793E-1,9.965819120E-1,1.241795685E0
9.924547917E0,-5.687772036E-1,-5.876393914E-1,8.167514205E-1,1.155815922E0
9.934514917E0,-7.396104336E-1,-5.606059432E-1,6.600648761E-1,1.138853923E0
9.944482917E0,-8.697228432E-1,-5.267336369E-1,5.891216397E-1,1.175129973E0
9.954450917E0,-9.169439077E-1,-4.094725251E-1,5.822599530E-1,1.160810291E0
9.964417917E0,-8.512904644E-1,-1.773709208E-1,5.870772600E-1,1.049197602E0
9.974385917E0,-6.886368394E-1,1.152484342E-1,6.107841730E-1,9.276638422E-1
9.984352917E0,-4.469598234E-1,4.724610150E-1,6.687047482E-1,9.328228849E-1
9.994320917E0,-1.546600461E-1,8.706912398E-1,7.448874116E-1,1.156235366E0
1.000428892E1,1.234674752E-1,1.224600196E0,8.148797750E-1,1.476116156E0
1.001425592E1,3.119564354E-1,1.429581881E0,8.685067892E-1,1.701565519E0
1.002422392E1,4.231558740E-1,1.427057624E0,9.046978951E-1,1.741847478E0
1.003419092E1,5.474429131E-1,1.122779012E0,8.999310732E-1,1.539546163E0
1.004415892E1,7.666335106E-1,4.659288824E-1,8.343613148E-1,1.225143039E0
1.005412692E1,1.030576468E0,-2.975695431E-1,7.577008605E-1,1.313295885E0
1.006409392E1,1.262278676E0,-9.181415439E-1,7.512920499E-1,1.732273389E0
1.007406192E1,1.422683597E0,-1.292866707E0,8.257668614E-1,2.092229396E0
1.008402892E1,1.516780496E0,-1.489507079E0,8.947001100E-1,2.306456741E0
1.009399692E1,1.541466355E0,-1.537485242E0,8.918443918E-1,2.352735815E0
1.010396492E1,1.531862497E0,-1.449095607E0,8.473361135E-1,2.272544670E0
1.011393192E1,1.509059787E0,-1.266177177E0,7.904965281E-1,2.122581175E0
1.012389992E1,1.469942331E0,-9.590047598E-1,7.246101499E-1,1.898810274E0
1.013386792E1,1.348156214E0,-6.177406311E-1,6.186179519E-1,1.606803297E0
1.014383492E1,1.125075459E0,-3.778007627E-1,5.692696571E-1,1.316281181E0
1.015380292E1,8.582285643E-1,-2.449527234E-1,6.576234698E-1,1.108614781E0
1.016376992E1,6.440489292E-1,-1.842430234E-1,8.275840282E-1,1.064725241E0
1.017373792E1,5.749604106E-1,-1.881738603E-1,9.870147109E-1,1.157664422E0
1.018370592E1,7.277817130E-1,-3.381118178E-1,1.057826638E0,1.327773708E0
1.019367292E1,1.140825510E0,-5.678414106E-1,1.039385080E0,1.644459807E0
1.020364092E1,1.534160972E0,-6.864985228E-1,9.336598516E-1,1.922667633E0
1.021360792E1,1.636193156E0,-6.516563296E-1,7.919306755E-1,1.931045885E0
1.022357592E1,1.486068010E0,-5.092042089E-1,7.046067119E-1,1.721672929E0
1.023354392E1,1.230984926E0,-2.665606737E-1,7.078384161E-1,1.444788464E0
1.024351092E1,1.004087329E0,6.818115711E-2,7.794870734E-1,1.272965095E0
1.025347892E1,8.810986280E-1,3.647044301E-1,8.402289748E-1,1.270955878E0
1.026344692E1,8.736606240E-1,4.888302684E-1,8.518882394E-1,1.314515686E0
1.027341392E1,9.365519881E-1,4.166660607E-1,8.731415868E-1,1.346520131E0
1.028338192E1,9.959731698E-1,2.358894050E-1,9.501085877E-1,1.396535963E0
1.029334892E1,9.940804839E-1,1.274795830E-1,1.063292146E0,1.461176663E0
1.030331692E1,8.820948005E-1,1.593472064E-1,1.158106208E0,1.464476957E0
1.031328492E1,7.144815326E-1,3.221531808E-1,1.194235682E0,1.428448598E0
1.032325192E1,5.500534177E-1,6.395948529E-1,1.161912203E0,1.435855252E0
1.033321992E1,3.876644671E-1,1.020764589E0,1.052582026E0,1.516632126E0
1.034318725E1,2.336547077E-1,1.290962934E0,8.690503240E-1,1.573667146E0
1.035315525E1,1.218623966E-1,1.348714948E0,6.457695961E-1,1.500300245E0
1.036312325E1,9.773537517E-2,1.201947927E0,4.407199025E-1,1.283925643E0
1.037309025E1,1.538039744E-1,9.714257717E-1,2.856661379E-1,1.024172268E0
1.038305825E1,2.410474271E-1,7.225081325E-1,1.632785946E-1,7.789619779E-1
1.039302625E1,3.579152226E-1,5.461389422E-1,8.277043700E-2,6.581960165E-1
1.040299325E1,4.619950056E-1,4.551903903E-1,-2.138925157E-2,6.489184670E-1
1.041296125E1,4.783947468E-1,4.272162914E-1,-2.508871555E-1,6.887086889E-1
1.042292825E1,3.219859898E-1,4.376973212E-1,-4.820481539E-1,7.263775501E-1
1.043289625E1,-1.905057877E-1,5.921111107E-1,-6.662235856E-1,9.114504312E-1
1.044286425E1,-9.263610840E-1,6.497989893E-1,-8.851494789E-1,1.436618664E0
1.045283125E1,-1.492830396E0,5.822774768E-1,-1.166202426E0,1.981821826E0
1.046279925E1,-1.806156754E0,5.644527674E-1,-1.444450378E0,2.380597833E0
1.047276625E1,-1.913998842E0,5.336216092E-1,-1.689952731E0,2.608463882E0
1.048273425E1,-1.883400202E0,4.078809321E-1,-1.887126327E0,2.697185375E0
1.049270225E1,-1.859005928E0,1.695645154E-1,-2.092073202E0,2.803823363E0
1.050266925E1,-1.914173961E0,3.982410952E-2,-2.304745913E0,2.996247926E0
1.051263725E1,-2.021461248E0,1.944211423E-1,-2.508734703E0,3.227670208E0
1.052260525E1,-2.102944374E0,5.512710214E-1,-2.614646912E0,3.400390162E0
1.053257225E1,-2.160437107E0,9.840496182E-1,-2.633489847E0,3.545576247E0
1.054254025E1,-2.205944538E0,1.426391125E0,-2.581635237E0,3.683154007E0
1.055250725E1,-2.198438168E0,1.763957262E0,-2.496052504E0,3.764963971E0
1.056247525E1,-2.145198345E0,1.855980039E0,-2.431867361E0,3.736377484E0
1.057244325E1,-2.080617666E0,1.806672573E0,-2.354208231E0,3.624269865E0
1.058241025E1,-1.984189630E0,1.671230912E0,-2.226183176E0,3.418466437E0
1.059237825E1,-1.822560787E0,1.529401064E0,-2.033015013E0,3.129527996E0
1.060234625E1,-1.477950931E0,1.528703570E0,-1.818528533E0,2.797913434E0
1.061231325E1,-8.690240383E-1,1.650373578E0,-1.647421718E0,2.488560637E0
1.062228125E1,-1.420345902E-1,1.798870087E0,-1.544047236E0,2.374908268E0
1.063224825E1,4.943250716E-1,1.757201791E0,-1.486639142E0,2.354190168E0
1.064221625E1,7.714648247E-1,1.360486269E0,-1.442643881E0,2.127745810E0
1.065218425E1,5.271896124E-1,8.352989554E-1,-1.470785022E0,1.771683327E0
1.066215125E1,7.595069706E-2,2.480303198E-1,-1.507339239E0,1.529496365E0
1.067211925E1,-7.331216335E-1,-2.287295818E0,-1.660289407E0,2.919888766E0
1.068208725E1,-1.058473110E0,-1.490732670E0,-1.914682031E0,2.647386730E0
1.069205425E1,-1.472574472E0,-1.280159950E0,-2.237611771E0,2.968870410E0
1.070202225E1,-7.517136931E-1,2.270531058E-1,-1.889659882E0,2.046323791E0
1.071198925E1,-2.326718420E-1,6.541983485E-1,-1.590528846E0,1.735480819E0
1.072195725E1,-4.166942835E-2,1.899641603E-1,-1.359189391E0,1.373032601E0
1.073192525E1,-2.275290489E-1,-9.388249516E-1,-1.143590808E0,1.496984200E0
1.074189225E1,-3.093947172E-1,-1.461425781E0,-9.874945879E-1,1.790708230E0
1.075186025E1,-4.032591581E-1,-2.329651356E0,-8.565797210E-1,2.514681333E0
1.076182725E1,-3.917905986E-1,-2.045885324E0,-7.902127504E-1,2.227909968E0
1.077179525E1,-9.397486597E-2,-1.995525241E0,-6.385436058E-1,2.097305462E0
1.078176325E1,1.818038225E-1,-1.650389194E0,-4.648313224E-1,1.724211496E0
1.079173025E1,3.738281429E-1,-1.101112247E0,-3.012778163E-1,1.201234358E0
1.080169825E1,4.729843736E-1,-6.266988516E-1,-1.618943512E-1,8.016704118E-1
1.081166625E1,4.941735566E-1,-4.159051478E-1,-3.698544577E-2,6.469563503E-1
1.082163325E1,4.919072390E-1,-4.212148190E-1,1.257035285E-1,6.596938931E-1
1.083160125E1,5.572699904E-1,-4.868018329E-1,3.692261875E-1,8.269545600E-1
1.084156925E1,7.527710199E-1,-5.394704938E-1,6.986711025E-1,1.160100828E0
1.085153625E1,1.037868738E0,-6.336720586E-1,1.102411389E0,1.641347820E0
1.086150425E1,1.296437383E0,-8.541157842E-1,1.481067181E0,2.145652268E0
1.087147125E1,1.439255238E0,-1.124603987E0,1.803032637E0,2.566537834E0
1.088143925E1,1.348845243E0,-1.309707165E0,2.096678495E0,2.816163536E0
1.089140725E1,7.357432842E-1,-1.430060267E0,2.408535242E0,2.896106449E0
1.090137425E1,-5.627384782E-1,-1.602491975E0,2.688189745E0,3.179782890E0
1.091134225E1,-1.387566686E0,-1.524458170E0,2.486184359E0,3.229617111E0
1.092131025E1,-1.043688774E0,-1.191123009E0,1.815825701E0,2.409415542E0
1.093127725E1,-9.847585112E-3,-1.029158831E0,1.064229131E0,1.480489283E0
1.094124525E1,7.908491492E-1,-6.306827068E-1,2.902560532E-1,1.052355277E0
1.095121225E1,1.097571850E0,7.800456882E-1,-3.392068148E-1,1.388595155E0
1.096118025E1,1.026576519E0,2.073144436E0,-6.889986992E-1,2.413815736E0
1.097114825E1,8.222223520E-1,2.444331646E0,-9.112269878E-1,2.735167530E0
1.098111525E1,6.969680786E-1,1.659300327E0,-9.621837139E-1,2.040793860E0
1.099108325E1,5.219281316E-1,-4.536591470E-2,-7.179234028E-1,8.887525263E-1
1.100105125E1,3.103666306E-1,-1.234979868E0,-1.977591664E-1,1.288647123E0
1.101101825E1,3.493054807E-1,-1.156088591E0,2.182399035E-1,1.227266802E0
1.102098625E1,4.329712391E-1,-4.661554992E-1,5.829605460E-1,8.629067398E-1
1.103095425E1,4.063406885E-1,2.637037635E-1,8.716543913E-1,9.972130203E-1
1.104092125E1,3.848414123E-1,4.930233657E-1,9.891415834E-1,1.170288863E0
1.105088925E1,5.456614494E-1,-1.405357271E-1,7.897600532E-1,9.701637231E-1
1.106085625E1,6.745495200E-1,-1.027857542E0,4.005291164E-1,1.293032001E0
1.107082425E1,6.225097775E-1,-1.417436481E0,1.575127542E-1,1.556102460E0
1.108079225E1,4.793535769E-1,-1.288803101E0,6.213627011E-2,1.376464384E0
1.109075925E1,2.781017125E-1,-9.251505136E-1,6.562154740E-2,9.682717712E-1
1.110072725E1,-3.257478029E-2,-4.535022676E-1,1.476310194E-1,4.780380120E-1
1.111069525E1,-3.692923486E-1,4.624494165E-2,3.255962133E-1,4.944980561E-1
1.112066225E1,-6.070989966E-1,3.875138462E-1,5.932441354E-1,9.330995536E-1
1.113063025E1,-7.277351022E-1,5.978438854E-1,8.560994864E-1,1.272761573E0
1.114059725E1,-7.306245565E-1,7.714596987E-1,1.026686430E0,1.477513903E0
1.115056525E1,-6.616449952E-1,9.410964251E-1,1.104745984E0,1.594960899E0
1.116053325E1,-5.080425739E-1,1.097679257E0,1.104067683E0,1.637672879E0
1.117050025E1,-2.634653449E-1,1.119366407E0,1.074744105E0,1.573998105E0
1.118046825E1,1.323363464E-2,9.681630731E-1,1.056629658E0,1.433171692E0
1.119043625E1,3.340119123E-1,6.713977456E-1,1.050424576E0,1.290631892E0
1.120040325E1,6.578613520E-1,1.513610780E-1,9.838463068E-1,1.193166078E0
1.121037125E1,9.355909228E-1,-3.898203969E-1,9.026273489E-1,1.357212750E0
1.122033925E1,1.134906292E0,-7.731654048E-1,8.570594788E-1,1.618748895E0
1.123030625E1,1.276303172E0,-9.582191706E-1,8.809751868E-1,1.822978619E0
1.124027425E1,1.363897443E0,-1.012916446E0,9.191048741E-1,1.931571829E0
1.125024125E1,1.410333395E0,-1.027552605E0,9.302139878E-1,1.977423248E0
1.126020925E1,1.425154805E0,-1.003823280E0,9.359414577E-1,1.978563572E0
1.127017725E1,1.421370149E0,-9.039426446E-1,9.555617571E-1,1.936621717E0
1.128014425E1,1.400935292E0,-7.301995158E-1,9.900795817E-1,1.864421788E0
1.129011225E1,1.313802004E0,-5.896093249E-1,1.031984925E0,1.771639847E0
1.130008025E1,1.137491345E0,-5.720252395E-1,1.030362844E0,1.637909346E0
1.131004725E1,9.046330452E-1,-7.044711709E-1,1.010319710E0,1.528197138E0
1.132001525E1,7.187762856E-1,-8.794762492E-1,1.035863042E0,1.537247561E0
1.132998325E1,6.682814360E-1,-9.648734331E-1,1.102904439E0,1.610583441E0
1.133995062E1,8.225511312E-1,-1.033839822E0,1.140040159E0,1.745023411E0
1.134991862E1,1.267264366E0,-1.107263207E0,1.182203412E0,2.056598087E0
1.135988562E1,1.814608693E0,-1.057252288E0,1.177387476E0,2.407660354E0
1.136985362E1,2.073251009E0,-8.737870455E-1,1.052205086E0,2.483748999E0
1.137982162E1,1.937181830E0,-6.879937649E-1,8.619598746E-1,2.229121731E0
1.138978863E1,1.550185800E0,-5.104888082E-1,7.215788364E-1,1.784474952E0
1.139975663E1,1.110137224E0,-2.928191125E-1,7.290000319E-1,1.359995859E0
1.140972463E1,7.913023233E-1,-4.963630438E-2,8.579912782E-1,1.168234635E0
1.141969162E1,6.689861417E-1,1.082888097E-1,9.572061896E-1,1.172822499E0
1.142965962E1,7.016048431E-1,1.060040817E-1,9.809980989E-1,1.210720237E0
1.143962762E1,8.069403172E-1,6.061689556E-2,9.700282812E-1,1.263242633E0
1.144959462E1,8.820667267E-1,1.325595230E-1,9.328284264E-1,1.290652010E0
1.145956263E1,8.325790763E-1,3.614539802E-1,8.758604527E-1,1.261335971E0
1.146953063E1,6.310041547E-1,7.274963856E-1,8.047804236E-1,1.255025404E0
1.147949762E1,3.527640700E-1,1.158417583E0,7.350271940E-1,1.416558774E0
1.148946562E1,1.266936660E-1,1.582981348E0,6.940647960E-1,1.733091796E0
1.149943262E1,1.022223383E-2,1.833483458E0,6.692108512E-1,1.951822033E0
1.150940062E1,1.689638197E-2,1.775626540E0,6.010837555E-1,1.874683114E0
1.151936862E1,1.075458080E-1,1.395377398E0,4.470915794E-1,1.469195379E0
1.152933563E1,2.393286079E-1,8.962972164E-1,2.691937387E-1,9.659669516E-1
1.153930363E1,3.854801953E-1,5.042138696E-1,1.116955951E-1,6.444396893E-1
1.154927163E1,5.479570031E-1,3.590716422E-1,-3.873605514E-3,6.551368760E-1
1.155923862E1,6.823539138E-1,4.109148979E-1,-1.162470803E-1,8.049666457E-1
1.156920662E1,6.346018910E-1,5.567528009E-1,-3.715523481E-1,9.223580589E-1
1.157917462E1,1.198867038E-1,9.883811474E-1,-6.414198279E-1,1.184351937E0
1.158914163E1,-7.416121364E-1,1.300630331E0,-7.467262745E-1,1.673089342E0
1.159910963E1,-1.421166062E0,1.372303724E0,-7.884691954E-1,2.127114045E0
1.160907763E1,-1.791098833E0,1.370059848E0,-8.783167601E-1,2.420028791E0
1.161904462E1,-1.910157204E0,1.289037824E0,-1.071509480E0,2.541348386E0
1.162901262E1,-1.858248115E0,1.143347740E0,-1.350337148E0,2.565880068E0
1.163897962E1,-1.735520005E0,8.953512311E-1,-1.629202008E0,2.543222896E0
1.164894762E1,-1.705027580E0,5.853869915E-1,-1.840354562E0,2.576179709E0
1.165891562E1,-1.849308133E0,2.849342227E-1,-1.988871694E0,2.730702967E0
1.166888263E1,-2.115607738E0,1.484866291E-1,-2.099740744E0,2.984418800E0
1.167885063E1,-2.349706650E0,2.943656743E-1,-2.213110209E0,3.241238850E0
1.168881862E1,-2.423216105E0,7.193588018E-1,-2.386748552E0,3.476495653E0
1.169878562E1,-2.314206362E0,1.243471026E0,-2.658028364E0,3.737229731E0
1.170875362E1,-2.111213207E0,1.682842731E0,-2.856395483E0,3.930416774E0
1.171872162E1,-1.894394755E0,2.003317356E0,-2.938501596E0,4.029491724E0
1.172868863E1,-1.669280410E0,2.300235510E0,-2.951101303E0,4.097142832E0
1.173865663E1,-1.426142454E0,2.559693813E0,-2.901509762E0,4.123672346E0
1.174862463E1,-1.076442719E0,2.569182396E0,-2.719242334E0,3.892776128E0
1.175859162E1,-5.808303952E-1,2.172006369E0,-2.442099094E0,3.319461342E0
1.176855962E1,-6.492420286E-2,1.558574796E0,-2.152700186E0,2.658474870E0
1.177852662E1,3.186092675E-1,1.225183725E0,-1.941282034E0,2.317576959E0
1.178849462E1,5.745766163E-1,1.255504608E0,-1.845947623E0,2.305201236E0
1.179846262E1,6.019029617E-1,1.301600337E0,-1.828889728E0,2.324067178E0
1.180842963E1,3.899805546E-1,1.031354547E0,-1.769658327E0,2.085058183E0
1.181839763E1,7.971651107E-2,4.906154275E-1,-1.649120331E0,1.722398353E0
1.182836562E1,-2.221461385E-1,-2.057631016E-1,-1.464738965E0,1.495709730E0
1.183833262E1,-4.384211302E-1,-8.749937415E-1,-1.387418866E0,1.697868736E0
1.184830062E1,-5.186433196E-1,-1.264126778E0,-1.461612701E0,2.000829601E0
1.185826862E1,-5.307936668E-1,-1.345116854E0,-1.569658279E0,2.134223133E0
1.186823563E1,-5.535828471E-1,-1.382049561E0,-1.569706440E0,2.163444768E0
1.187820363E1,-6.177267432E-1,-1.605274439E0,-1.408687711E0,2.223261887E0
1.188817163E1,-7.251892686E-1,-1.963091135E0,-1.120131731E0,2.373672550E0
1.189813862E1,-8.501832485E-1,-2.183950186E0,-8.449717164E-1,2.491270192E0
1.190810662E1,-9.028211832E-1,-1.822220206E0,-7.000927925E-1,2.150744635E0
1.191807462E1,-8.340525627E-1,-1.582165241E0,-6.466743946E-1,1.901861799E0
1.192804162E1,-8.054754734E-1,-2.597518206E0,-5.524041057E-1,2.775075109E0
1.193800962E1,-6.686999798E-1,-2.887156248E0,-3.955662251E-1,2.989866803E0
1.194797763E1,-3.958905339E-1,-2.364947557E0,-2.406951636E-1,2.409904651E0
1.195794462E1,-9.604365379E-2,-1.581033707E0,-1.295635551E-1,1.589238396E0
1.196791262E1,1.655131131E-1,-8.836423159E-1,-8.078723401E-2,9.026322120E-1
1.197787962E1,3.997521400E-1,-4.280191064E-1,-6.345936656E-2,5.890918605E-1
1.198784762E1,6.450316906E-1,-1.613413692E-1,4.032858182E-3,6.649159219E-1
1.199781562E1,9.562662840E-1,8.512260392E-3,2.058184743E-1,9.782018753E-1
1.200778263E1,1.335707068E0,8.901775628E-2,5.411775708E-1,1.443921984E0
1.201775063E1,1.707345009E0,4.996469989E-2,9.840052128E-1,1.971240652E0
1.202771863E1,1.957627773E0,-1.409900784E-1,1.474976063E0,2.455145431E0
1.203768562E1,2.007409573E0,-4.562553465E-1,1.932501674E0,2.823548273E0
1.204765362E1,1.794529676E0,-8.067651391E-1,2.293502331E0,3.021813974E0
1.205762162E1,1.003836036E0,-1.131300807E0,2.625360250E0,3.029858866E0
1.206758862E1,-6.361562014E-1,-1.709713340E0,2.864262104E0,3.395852149E0
1.207755663E1,-2.047579050E0,-1.816450238E0,2.606219053E0,3.779477370E0
1.208752463E1,-1.660136938E0,-1.636741400E0,1.867649555E0,2.987154486E0
1.209749162E1,-1.377227008E-1,-1.371547818E0,9.848563075E-1,1.694123049E0
1.210745962E1,1.046374917E0,-5.710643530E-1,-1.069296151E-2,1.192111279E0
1.211742762E1,1.493915915E0,1.243877053E0,-9.114954472E-1,2.147053524E0
1.212739462E1,1.367353916E0,2.515322447E0,-1.546709895E0,3.254045981E0
1.213736262E1,1.051854610E0,3.034389734E0,-1.824241877E0,3.693477711E0
1.214733062E1,8.446100354E-1,2.551057577E0,-1.590665698E0,3.122735698E0
1.215729763E1,7.238581181E-1,1.129770517E0,-9.763739109E-1,1.659414960E0
1.216726563E1,5.931866169E-1,-3.333915472E-1,-1.439954489E-1,6.955249640E-1
1.217723262E1,5.564187169E-1,-9.334601760E-1,3.888458908E-1,1.154188380E0
1.218720062E1,4.584993422E-1,-7.878656983E-1,7.241564989E-1,1.164197853E0
1.219716862E1,3.170213401E-1,-5.124241114E-1,1.019122362E0,1.183930483E0
1.220713563E1,1.871935725E-1,-5.173597336E-1,1.197924376E0,1.318228105E0
1.221710363E1,1.743446440E-1,-9.947402477E-1,1.183090925E0,1.555509033E0
1.222707163E1,1.543392390E-1,-1.538041592E0,8.705793023E-1,1.774063375E0
1.223703862E1,1.940375865E-1,-1.852816463E0,5.041876435E-1,1.929970106E0
1.224700662E1,2.627604604E-1,-1.896249652E0,2.334666997E-1,1.928551918E0
1.225697462E1,2.459625751E-1,-1.702374220E0,7.859722525E-2,1.721845840E0
1.226694162E1,1.083234847E-1,-1.323688388E0,-2.453420777E-3,1.328115562E0
1.227690962E1,-1.092215851E-1,-7.923132777E-1,-1.993256807E-2,8.000543681E-1
1.228687762E1,-2.748012245E-1,-2.650984526E-1,6.318575144E-2,3.870211127E-1
1.229684463E1,-3.326714635E-1,2.553229332E-1,3.381770551E-1,5.387242555E-1
1.230681263E1,-3.464192450E-1,8.050624728E-1,7.096039057E-1,1.127683281E0
1.231678062E1,-3.192719519E-1,1.321182609E0,1.046495438E0,1.715403966E0
1.232674762E1,-2.499799430E-1,1.702745914E0,1.287559986E0,2.149335790E0
1.233671562E1,-1.621745378E-1,1.866659403E0,1.389519811E0,2.332698697E0
1.234668254E1,-6.606371701E-2,1.818557382E0,1.381672263E0,2.284848706E0
1.235664954E1,1.248920187E-1,1.457897067E0,1.314015269E0,1.966646385E0
1.236661754E1,5.508320928E-1,4.405774772E-1,1.183727622E0,1.377946150E0
1.237658554E1,1.011622071E0,-7.433888316E-1,1.033632159E0,1.626161619E0
1.238655254E1,1.301858425E0,-1.416987777E0,9.853984714E-1,2.161874156E0
1.239652054E1,1.408419728E0,-1.614300489E0,9.996448159E-1,2.364085861E0
1.240648854E1,1.361152053E0,-1.578556418E0,9.547023773E-1,2.292603740E0
1.241645554E1,1.206625938E0,-1.447089672E0,8.933385611E-1,2.085202259E0
1.242642354E1,9.693049788E-1,-1.300212860E0,8.439539671E-1,1.828213314E0
1.243639054E1,7.435353994E-1,-1.105032206E0,8.434553742E-1,1.576501834E0
1.244635854E1,5.758665204E-1,-9.043112993E-1,8.936436772E-1,1.395707776E0
1.245632654E1,4.915977120E-1,-7.580360770E-1,9.989756346E-1,1.346937015E0
1.246629354E1,4.911790490E-1,-6.569973230E-1,1.111079097E0,1.381086203E0
1.247626154E1,5.655180216E-1,-5.369354486E-1,1.093307495E0,1.342919055E0
1.248622954E1,7.463878989E-1,-3.712604642E-1,9.909156561E-1,1.294929753E0
1.249619654E1,1.090441227E0,-3.201695383E-1,8.992106318E-1,1.449189554E0
1.250616454E1,1.667692661E0,-5.499998331E-1,8.572368622E-1,1.954111989E0
1.251613254E1,2.231958628E0,-9.090460539E-1,8.250491023E-1,2.547294656E0
1.252609954E1,2.479056597E0,-1.128689289E0,7.607430816E-1,2.828142705E0
1.253606754E1,2.375800848E0,-1.134631872E0,7.193124890E-1,2.729327685E0
1.254603554E1,1.991687894E0,-8.937891126E-1,7.681937218E-1,2.314260409E0
1.255600254E1,1.391732931E0,-4.029034376E-1,9.257360697E-1,1.719371688E0
1.256597054E1,7.240284085E-1,1.783844829E-1,1.097464442E0,1.326825671E0
1.257593854E1,2.340659648E-1,5.330579281E-1,1.147373080E0,1.286624505E0
1.258590554E1,5.066738278E-2,6.686064601E-1,1.119230390E0,1.304713933E0
1.259587354E1,1.437659264E-1,6.588873863E-1,1.064612508E0,1.260238478E0
1.260584154E1,4.023841918E-1,5.843260884E-1,9.824224710E-1,1.211818438E0
1.261580854E1,6.567135453E-1,5.512107611E-1,8.783484697E-1,1.227437175E0
1.262577654E1,8.282346725E-1,5.976504683E-1,7.691943049E-1,1.278600264E0
1.263574454E1,9.093481898E-1,7.311033010E-1,6.587865353E-1,1.339935023E0
1.264571154E1,8.991706967E-1,9.967099428E-1,5.674697161E-1,1.457381395E0
1.265567954E1,7.608800530E-1,1.368029952E0,5.395832062E-1,1.655776084E0
1.266564754E1,5.063380599E-1,1.621619940E0,6.326324344E-1,1.812802597E0
1.267561454E1,2.471193075E-1,1.578055620E0,7.417175770E-1,1.761099786E0
1.268558254E1,1.081643403E-1,1.276665449E0,7.122235894E-1,1.465891072E0
1.269554954E1,1.342885494E-1,8.769286275E-1,5.668293834E-1,1.052773851E0
1.270551754E1,2.828295529E-1,5.989087224E-1,3.740825653E-1,7.606720577E-1
1.271548554E1,4.730495811E-1,5.117726922E-1,1.704925299E-1,7.174642133E-1
1.272545254E1,6.060007215E-1,5.944816470E-1,-4.578117281E-2,8.501418816E-1
1.273542054E1,5.926483870E-1,6.858289838E-1,-3.071193993E-1,9.570349163E-1
1.274538854E1,3.036174178E-1,7.689605951E-1,-6.360703707E-1,1.043105675E0
1.275535554E1,-3.712800741E-1,9.805654883E-1,-8.176357746E-1,1.329618679E0
1.276532354E1,-1.097976804E0,1.131861806E0,-8.723906279E-1,1.802145837E0
1.277529154E1,-1.591778636E0,1.223401785E0,-9.443784356E-1,2.218630610E0
1.278525854E1,-1.819883466E0,1.257461190E0,-1.116378784E0,2.477798633E0
1.279522654E1,-1.842796922E0,1.154876709E0,-1.370937228E0,2.570818856E0
1.280519454E1,-1.750538826E0,8.737345934E-1,-1.629444957E0,2.546151839E0
1.281516154E1,-1.635491490E0,4.534439147E-1,-1.820494771E0,2.488904379E0
1.282512954E1,-1.607108831E0,1.333897375E-2,-1.977082968E0,2.547907727E0
1.283509754E1,-1.725079894E0,-2.079757750E-1,-2.163392305E0,2.774783024E0
1.284506454E1,-1.940868616E0,6.472685188E-2,-2.417150021E0,3.100608774E0
1.285503254E1,-2.176918745E0,7.759311795E-1,-2.713087797E0,3.563971074E0
1.286500054E1,-2.260355473E0,1.285975218E0,-2.862867594E0,3.867680181E0
1.287496754E1,-2.187799215E0,1.543526769E0,-2.825649023E0,3.892715337E0
1.288493554E1,-2.017547607E0,1.759741902E0,-2.718670368E0,3.815541702E0
1.289490354E1,-1.833346009E0,1.988505363E0,-2.656237841E0,3.790898394E0
1.290487054E1,-1.681556940E0,2.191516399E0,-2.635330677E0,3.817767102E0
1.291483854E1,-1.493709803E0,2.189195395E0,-2.540529966E0,3.671244743E0
1.292480554E1,-1.158023715E0,1.923751593E0,-2.327382565E0,3.233967952E0
1.293477354E1,-7.200218439E-1,1.471673727E0,-2.064758778E0,2.635808002E0
1.294474154E1,-2.672621012E-1,1.153829217E0,-1.837099910E0,2.185792070E0
1.295470854E1,8.872638643E-2,1.269920945E0,-1.709405780E0,2.131346921E0
1.296467654E1,2.722637355E-1,1.518963218E0,-1.670601368E0,2.274265976E0
1.297464454E1,2.131794393E-1,1.429252863E0,-1.644893169E0,2.189493722E0
1.298461154E1,-1.111997664E-2,9.912898540E-1,-1.540072680E0,1.831557558E0
1.299457954E1,-3.226818442E-1,3.093623817E-1,-1.372170448E0,1.443149471E0
1.300454754E1,-5.395802855E-1,-3.153595328E-1,-1.264818430E0,1.410802672E0
1.301451454E1,-5.842899084E-1,-7.290792465E-1,-1.314017296E0,1.612325246E0
1.302448254E1,-5.315707922E-1,-9.463146329E-1,-1.410323620E0,1.779632435E0
1.303445054E1,-5.466532111E-1,-1.293061256E0,-1.440451980E0,2.011402260E0
1.304441754E1,-6.076737046E-1,-1.452292681E0,-1.332728505E0,2.062664934E0
1.305438554E1,-6.896116138E-1,-1.236625433E0,-1.151158094E0,1.824820977E0
1.306435354E1,-7.304186821E-1,-1.341538787E0,-9.741338491E-1,1.811677268E0
1.307432054E1,-7.484367490E-1,-1.589419484E0,-8.506215215E-1,1.951914147E0
1.308428854E1,-7.720515132E-1,-2.306950808E0,-7.361050248E-1,2.541640450E0
1.309425654E1,-7.199310064E-1,-2.821447849E0,-5.984839201E-1,2.972717885E0
1.310422354E1,-5.206556916E-1,-2.424139977E0,-4.455686510E-1,2.519140408E0
1.311419154E1,-2.457073033E-1,-1.729636073E0,-2.887262702E-1,1.770699264E0
1.312415954E1,2.276391955E-3,-1.021956682E0,-1.743765324E-1,1.036729385E0
1.313412654E1,2.183831781E-1,-4.814392626E-1,-9.906028956E-2,5.378549219E-1
1.314409454E1,4.250580668E-1,-1.440423280E-1,-1.395978034E-2,4.490182935E-1
1.315406154E1,6.563485861E-1,2.518088743E-2,1.419818401E-1,6.720017756E-1
1.316402954E1,9.481825829E-1,6.301907450E-2,3.719846606E-1,1.020487238E0
1.317399754E1,1.298173428E0,2.732599340E-2,6.801018119E-1,1.465789696E0
1.318396454E1,1.607156515E0,-8.873057365E-2,1.057373762E0,1.925841232E0
1.319393254E1,1.776664138E0,-3.301443458E-1,1.448845744E0,2.316178909E0
1.320390054E1,1.768000245E0,-6.901624203E-1,1.772948742E0,2.597209324E0
1.321386754E1,1.475887537E0,-1.132819772E0,2.066651344E0,2.780750337E0
1.322383554E1,5.244911909E-1,-1.644542456E0,2.391980886E0,2.949776849E0
1.323380354E1,-9.228147268E-1,-2.238152027E0,2.568385601E0,3.529520663E0
1.324377054E1,-1.658973813E0,-2.038994551E0,2.181114435E0,3.415692180E0
1.325373854E1,-9.040527940E-1,-1.558501720E0,1.417312503E0,2.292381687E0
1.326370654E1,3.732847273E-1,-1.068959713E0,5.891175866E-1,1.276352571E0
1.327367354E1,1.154921174E0,-1.295981258E-1,-2.646978199E-1,1.191932686E0
1.328364154E1,1.247528315E0,1.429776430E0,-9.501895905E-1,2.122132841E0
1.329360954E1,8.865896463E-1,2.467208147E0,-1.316393495E0,2.933606837E0
1.330357654E1,4.763475358E-1,2.473602772E0,-1.440280795E0,2.901728177E0
1.331354454E1,3.164932430E-1,1.341775179E0,-1.283819795E0,1.883805157E0
1.332351254E1,2.665925324E-1,-3.155062795E-1,-7.214587927E-1,8.313354198E-1
1.333347954E1,3.700003028E-1,-1.097336054E0,-1.432073116E-1,1.166856878E0
1.334344850E1,5.943074226E-1,-8.404781222E-1,2.134014070E-1,1.051258744E0
1.335341550E1,7.097747922E-1,-1.811893582E-1,5.279420614E-1,9.029577285E-1
1.336338350E1,6.773926616E-1,4.039435983E-1,8.103788495E-1,1.130816134E0
1.337335150E1,5.625506043E-1,5.160673261E-1,9.726753831E-1,1.236481326E0
1.338331850E1,4.359889627E-1,-1.459817290E-1,9.222788215E-1,1.030531545E0
1.339328650E1,1.313101202E-1,-9.270201325E-1,7.171673775E-1,1.179380228E0
1.340325450E1,-6.698939204E-2,-1.421407819E0,4.976060390E-1,1.507481189E0
1.341322150E1,-1.576661617E-1,-1.613865018E0,3.608739972E-1,1.661219118E0
1.342318950E1,-2.506533563E-1,-1.515754342E0,3.305320740E-1,1.571492852E0
1.343315750E1,-3.524695933E-1,-1.193307281E0,3.787202239E-1,1.300632957E0
1.344312450E1,-4.130916595E-1,-6.699313521E-1,4.757631421E-1,9.196756511E-1
1.345309250E1,-4.025091827E-1,-6.547362357E-2,6.260097623E-1,7.471202447E-1
1.346306050E1,-3.003945351E-1,4.901611209E-1,8.023475409E-1,9.870442632E-1
1.347302750E1,-1.365088969E-1,9.970878959E-1,9.651203156E-1,1.394373040E0
1.348299550E1,4.933075234E-2,1.450448632E0,1.099095345E0,1.820506889E0
1.349296350E1,2.247643471E-1,1.742369413E0,1.197932124E0,2.126361107E0
1.350293050E1,3.282124102E-1,1.823436260E0,1.228925228E0,2.223263457E0
1.351289850E1,3.762040138E-1,1.651789069E0,1.199510932E0,2.075756023E0
1.352286650E1,4.840266407E-1,1.128559351E0,1.103561997E0,1.650992756E0
1.353283350E1,7.238553166E-1,2.153633237E-1,9.765842557E-1,1.234530149E0
1.354280150E1,9.710379243E-1,-6.871228218E-1,9.192317724E-1,1.503342767E0
1.355276850E1,1.150401950E0,-1.200093269E0,1.006313205E0,1.943274239E0
1.356273650E1,1.243351579E0,-1.382516384E0,1.066691637E0,2.143619777E0
1.357270450E1,1.249844313E0,-1.376833797E0,1.052044392E0,2.136487658E0
1.358267150E1,1.158082128E0,-1.283031702E0,9.954646826E-1,1.994561229E0
1.359263950E1,1.019293308E0,-1.138378739E0,9.452436566E-1,1.796761134E0
1.360260750E1,8.911231160E-1,-9.217725992E-1,9.253711104E-1,1.581163124E0
1.361257450E1,7.895904183E-1,-6.490201950E-1,9.395694733E-1,1.388333907E0
1.362254250E1,7.134176493E-1,-4.044898152E-1,9.837390780E-1,1.280749518E0
1.363251050E1,6.334974170E-1,-2.892222106E-1,9.804953337E-1,1.202638584E0
1.364247750E1,5.487990379E-1,-2.961810529E-1,9.066269994E-1,1.100398163E0
1.365244550E1,5.138255358E-1,-3.049621582E-1,8.580932021E-1,1.045630213E0
1.366241350E1,5.862933397E-1,-2.665971816E-1,8.476464152E-1,1.064574273E0
1.367238050E1,7.988107204E-1,-2.514198124E-1,8.354898691E-1,1.182942860E0
1.368234850E1,1.197288394E0,-3.480723202E-1,8.095403314E-1,1.486610032E0
1.369231550E1,1.655324221E0,-5.149809122E-1,7.609127164E-1,1.893222591E0
1.370228350E1,1.917414665E0,-6.914523840E-1,6.759842634E-1,2.147449679E0
1.371225150E1,1.930422783E0,-8.295310736E-1,5.994021297E-1,2.184934058E0
1.372221850E1,1.740845442E0,-8.974547386E-1,5.872653127E-1,2.044712304E0
1.373218650E1,1.453935504E0,-8.309349418E-1,6.643857360E-1,1.801607541E0
1.374215450E1,1.143700719E0,-6.198312044E-1,8.041385412E-1,1.529340005E0
1.375212150E1,8.878137469E-1,-3.756328523E-1,9.444916844E-1,1.349584318E0
1.376208950E1,7.316358685E-1,-1.882738471E-1,1.019973397E0,1.269284766E0
1.377205750E1,6.859201193E-1,-6.729878485E-2,1.010560274E0,1.223212003E0
1.378202450E1,6.930317879E-1,5.466573685E-2,9.501615763E-1,1.177322565E0
1.379199250E1,6.906384230E-1,2.239934206E-1,8.780013323E-1,1.139315945E0
1.380196050E1,6.412895322E-1,4.468004107E-1,8.203294873E-1,1.133059283E0
1.381192750E1,5.348625183E-1,7.245995998E-1,7.856394649E-1,1.195136755E0
1.382189550E1,4.016357362E-1,1.055046916E0,7.582123876E-1,1.359897527E0
1.383186250E1,2.659129202E-1,1.415184855E0,7.259562612E-1,1.612597392E0
1.384183050E1,1.351354718E-1,1.718006849E0,7.209673524E-1,1.868047926E0
1.385179850E1,4.536634684E-2,1.768106103E0,7.408648729E-1,1.917586519E0
1.386176550E1,4.512506723E-2,1.499364495E0,7.264526486E-1,1.666692417E0
1.387173350E1,1.329294294E-1,9.685403705E-1,6.106808186E-1,1.152680244E0
1.388170150E1,2.829279900E-1,4.446734190E-1,4.692980945E-1,7.057077289E-1
1.389166850E1,4.695093036E-1,1.010585725E-1,3.239217997E-1,5.792902153E-1
1.390163650E1,6.669155955E-1,9.604784101E-2,2.084796280E-1,7.053122391E-1
1.391160450E1,8.086109757E-1,3.128279746E-1,7.642617822E-2,8.703757881E-1
1.392157150E1,7.584279776E-1,5.441085696E-1,-1.853228658E-1,9.516363262E-1
1.393153950E1,2.672696114E-1,8.650096059E-1,-4.293677509E-1,1.002013637E0
1.394150650E1,-5.892599821E-1,1.050133586E0,-5.293651819E-1,1.315384115E0
1.395147450E1,-1.285129786E0,9.426161647E-1,-5.957019925E-1,1.701453691E0
1.396144250E1,-1.658364892E0,7.966552377E-1,-7.308483720E-1,1.979639620E0
1.397140950E1,-1.759811163E0,6.755670905E-1,-9.848098159E-1,2.126776104E0
1.398137750E1,-1.719542265E0,5.894026756E-1,-1.312041879E0,2.241801732E0
1.399134550E1,-1.634913564E0,5.219309330E-1,-1.633988738E0,2.369656822E0
1.400131250E1,-1.641492844E0,4.201675653E-1,-1.923610687E0,2.563458136E0
1.401128050E1,-1.770141602E0,3.107722700E-1,-2.176791668E0,2.822835925E0
1.402124850E1,-1.978718758E0,3.214523494E-1,-2.389802217E0,3.119265005E0
1.403121550E1,-2.147434711E0,5.106879473E-1,-2.571168900E0,3.388685221E0
1.404118350E1,-2.191293001E0,8.594025373E-1,-2.701300859E0,3.582926747E0
1.405115150E1,-2.141292572E0,1.249613404E0,-2.762425900E0,3.711827635E0
1.406111850E1,-2.040028334E0,1.614914894E0,-2.742444992E0,3.780300286E0
1.407108650E1,-1.900115848E0,1.910695672E0,-2.693554878E0,3.810044103E0
1.408105350E1,-1.747844219E0,2.079292059E0,-2.664711714E0,3.805141705E0
1.409102150E1,-1.588285089E0,2.100578070E0,-2.639305353E0,3.728405892E0
1.410098950E1,-1.380941510E0,1.957484603E0,-2.518399954E0,3.475785343E0
1.411095650E1,-1.085664749E0,1.684823871E0,-2.290329218E0,3.043502481E0
1.412092450E1,-6.791768074E-1,1.505016804E0,-2.040909052E0,2.625198368E0
1.413089250E1,-1.916705221E-1,1.596912861E0,-1.877443194E0,2.472177425E0
1.414085950E1,2.318788767E-1,1.953370571E0,-1.813028216E0,2.675162746E0
1.415082750E1,4.645825028E-1,2.186231613E0,-1.794000030E0,2.865987033E0
1.416079550E1,4.109235406E-1,1.856008649E0,-1.748206973E0,2.582606025E0
1.417076250E1,1.336024851E-1,1.108230472E0,-1.637422681E0,1.981710735E0
1.418073050E1,-2.134193927E-1,2.201109827E-1,-1.483379841E0,1.514731803E0
1.419069750E1,-5.429041386E-1,-9.557594657E-1,-1.440115929E0,1.811671865E0
1.420066550E1,-5.994001627E-1,-1.072054982E0,-1.488026619E0,1.929457348E0
1.421063350E1,-6.953964233E-1,-1.118089199E0,-1.549652576E0,2.033500123E0
1.422060050E1,-6.050601006E-1,-9.653728604E-1,-1.475315213E0,1.864027216E0
1.423056850E1,-6.065282822E-1,-1.119634390E0,-1.317559242E0,1.832326412E0
1.424053650E1,-6.727392673E-1,-1.438732505E0,-1.123486757E0,1.945443866E0
1.425050350E1,-7.382611036E-1,-1.562039256E0,-9.530168176E-1,1.973128772E0
1.426047150E1,-7.724283934E-1,-2.113466263E0,-8.325570226E-1,2.399278321E0
1.427043950E1,-7.515772581E-1,-2.546005249E0,-7.172943950E-1,2.749822240E0
1.428040650E1,-6.194285154E-1,-2.484706879E0,-6.027536988E-1,2.630736015E0
1.429037450E1,-4.307674468E-1,-2.135844707E0,-4.859652817E-1,2.232387839E0
1.430034150E1,-2.390142679E-1,-1.663452744E0,-3.779860735E-1,1.722520341E0
1.431030950E1,-6.215846911E-2,-1.177116394E0,-2.796513140E-1,1.211474943E0
1.432027750E1,1.238494888E-1,-7.856568694E-1,-1.890646666E-1,8.175211682E-1
1.433024450E1,3.337162435E-1,-5.092207789E-1,-1.008491591E-1,6.171246922E-1
1.434021250E1,5.810338855E-1,-3.231259882E-1,1.847963035E-2,6.650956902E-1
1.435018025E1,8.721517324E-1,-2.216239423E-1,2.351390868E-1,9.300839781E-1
1.436014725E1,1.212132454E0,-1.934708655E-1,5.380582213E-1,1.340224873E0
1.437011525E1,1.548578382E0,-2.144004405E-1,9.523565173E-1,1.830586105E0
1.438008325E1,1.778842807E0,-3.785619438E-1,1.421884060E0,2.308537450E0
1.439005025E1,1.842600346E0,-6.545829773E-1,1.854678750E0,2.695085931E0
1.440001825E1,1.666604519E0,-9.431154728E-1,2.213927269E0,2.927201969E0
1.440998525E1,8.181346059E-1,-1.251217484E0,2.559273720E0,2.963911503E0
1.441995325E1,-8.550298810E-1,-1.819188952E0,2.847374439E0,3.485407543E0
1.442992125E1,-1.927539349E0,-1.683936477E0,2.492841959E0,3.572857544E0
1.443988825E1,-1.379541039E0,-1.516595960E0,1.715524077E0,2.673241412E0
1.444985625E1,-8.134902455E-3,-1.542441368E0,9.388079643E-1,1.805699849E0
1.445982425E1,1.036664963E0,-7.865861654E-1,1.199208200E-1,1.306817908E0
1.446979125E1,1.351403117E0,1.044148326E0,-5.991046429E-1,1.809823882E0
1.447975925E1,1.088151336E0,2.330557108E0,-1.096790314E0,2.796161432E0
1.448972725E1,6.884422302E-1,2.747491360E0,-1.316892147E0,3.123598310E0
1.449969425E1,4.451183081E-1,1.960335493E0,-1.164596081E0,2.323215355E0
1.450966225E1,3.325814605E-1,3.226972818E-1,-6.697799563E-1,8.144624936E-1
1.451962925E1,3.452953994E-1,-8.848023415E-1,-8.617216349E-2,9.536926853E-1
1.452959725E1,5.358393788E-1,-1.032252431E0,2.533791363E-1,1.190323447E0
1.453956525E1,6.259791255E-1,-5.847236514E-1,5.655620694E-1,1.026456072E0
1.454953225E1,5.593567491E-1,-1.431591511E-1,8.593422174E-1,1.035298779E0
1.455950025E1,4.641921222E-1,-1.054397300E-1,1.049369216E0,1.152287991E0
1.456946825E1,4.746572673E-1,-8.245607615E-1,1.040060759E0,1.409583751E0
1.457943525E1,2.429646552E-1,-1.453378081E0,8.941347599E-1,1.723605709E0
1.458940325E1,3.121629544E-2,-1.602889895E0,7.041972876E-1,1.751035206E0
1.459937025E1,-4.187229276E-2,-1.486123681E0,4.834577143E-1,1.563345210E0
1.460933825E1,-1.271217465E-1,-1.174053431E0,3.179239631E-1,1.222962404E0
1.461930625E1,-2.984804511E-1,-7.790728211E-1,2.564715445E-1,8.728245491E-1
1.462927325E1,-4.754925370E-1,-3.336878121E-1,2.898274064E-1,6.491845918E-1
1.463924125E1,-5.337044597E-1,1.182527542E-1,4.434023201E-1,7.038677302E-1
1.464920925E1,-4.613646567E-1,4.457688928E-1,6.494281888E-1,9.128659401E-1
1.465917625E1,-3.066581786E-1,6.954580545E-1,8.479160070E-1,1.138710981E0
1.466914425E1,-1.371642053E-1,9.513438940E-1,1.003407478E0,1.389494797E0
1.467911225E1,2.232345380E-2,1.173928142E0,1.087947369E0,1.600698315E0
1.468907925E1,1.342240125E-1,1.263877034E0,1.117857695E0,1.692633176E0
1.469904725E1,2.023958713E-1,1.143456578E0,1.113934040E0,1.609132089E0
1.470901425E1,3.192565143E-1,7.236646414E-1,1.058038831E0,1.321007722E0
1.471898225E1,5.452936292E-1,-4.056086391E-2,9.493743777E-1,1.095582966E0
1.472895025E1,8.012942076E-1,-8.740909696E-1,8.807601333E-1,1.477107255E0
1.473891725E1,1.001751900E0,-1.413635731E0,8.750622869E-1,1.941032420E0
1.474888525E1,1.120561600E0,-1.597749829E0,9.214888215E-1,2.158148388E0
1.475885325E1,1.158474088E0,-1.546225309E0,9.341798425E-1,2.146058456E0
1.476882025E1,1.139883518E0,-1.358836889E0,8.975743055E-1,1.987815827E0
1.477878825E1,1.076665401E0,-1.104501486E0,8.454487920E-1,1.758952978E0
1.478875525E1,1.031728745E0,-7.773216367E-1,8.248518705E-1,1.532668828E0
1.479872325E1,1.013171554E0,-4.539786577E-1,8.548630476E-1,1.401215204E0
1.480869125E1,9.671678543E-1,-2.398106307E-1,9.051668644E-1,1.346198295E0
1.481865825E1,8.784843087E-1,-2.370132506E-1,8.975291848E-1,1.278072220E0
1.482862625E1,7.727136016E-1,-3.861763775E-1,8.801805377E-1,1.233262455E0
1.483859425E1,7.408115864E-1,-5.605077147E-1,8.920180202E-1,1.287892407E0
1.484856125E1,8.533248901E-1,-6.690887809E-1,9.407916665E-1,1.435594694E0
1.485852925E1,1.121762633E0,-7.863498926E-1,9.775717854E-1,1.682956968E0
1.486849625E1,1.545724392E0,-9.531255960E-1,9.823852777E-1,2.064653272E0
1.487846425E1,1.938448191E0,-1.017977357E0,9.384226203E-1,2.382120127E0
1.488843225E1,2.062433481E0,-8.965116143E-1,8.423933387E-1,2.401456116E0
1.489839925E1,1.893129587E0,-6.964141726E-1,7.551146150E-1,2.153864066E0
1.490836725E1,1.541097522E0,-4.363960326E-1,7.404031157E-1,1.764545223E0
1.491833525E1,1.155393004E0,-1.278459132E-1,8.162356019E-1,1.420393653E0
1.492830225E1,8.768460751E-1,1.777505875E-1,9.359519482E-1,1.294781974E0
1.493827025E1,7.638523579E-1,3.573874533E-1,9.765344858E-1,1.290277419E0
1.494823725E1,7.749770284E-1,3.555296957E-1,9.532494545E-1,1.278935214E0
1.495820525E1,8.163431287E-1,2.750300765E-1,9.604551196E-1,1.290167308E0
1.496817325E1,7.995262146E-1,2.348624915E-1,9.998590350E-1,1.301583900E0
1.497814025E1,6.912745833E-1,2.893377244E-1,1.013855577E0,1.260745810E0
1.498810825E1,5.151172876E-1,4.711879194E-1,9.765502810E-1,1.200422562E0
1.499807625E1,3.436056972E-1,7.889773250E-1,8.858675361E-1,1.235034974E0
1.500804325E1,2.133047879E-1,1.209551096E0,7.508770823E-1,1.439558675E0
1.501801125E1,1.149569228E-1,1.575949073E0,6.502615213E-1,1.708704369E0
1.502797925E1,4.672117159E-2,1.670319438E0,5.919501781E-1,1.772725277E0
1.503794625E1,4.916568846E-2,1.413440585E0,4.866216183E-1,1.495671138E0
1.504791425E1,1.591478586E-1,9.678534865E-1,3.677276075E-1,1.047517067E0
1.505788125E1,3.490171432E-1,5.148385763E-1,2.481284887E-1,6.696562348E-1
1.506784925E1,5.874735117E-1,2.498259693E-1,1.359759271E-1,6.527078938E-1
1.507781725E1,7.668659091E-1,2.355272025E-1,1.974759810E-2,8.024626803E-1
1.508778425E1,7.399152517E-1,4.691982865E-1,-1.431664824E-1,8.877602455E-1
1.509775225E1,1.688458771E-1,9.186136127E-1,-4.326688647E-1,1.029350400E0
1.510772025E1,-7.404806614E-1,1.138546944E0,-6.413267851E-1,1.501965645E0
1.511768725E1,-1.429757833E0,1.127838373E0,-7.491259575E-1,1.969115679E0
1.512765525E1,-1.787670135E0,1.145877719E0,-8.856950998E-1,2.300707732E0
1.513762225E1,-1.885762334E0,1.118715644E0,-1.089454651E0,2.448374095E0
1.514759025E1,-1.825147629E0,9.449159503E-1,-1.381724358E0,2.476528260E0
1.515755825E1,-1.712011218E0,6.414820552E-1,-1.668615699E0,2.475229280E0
1.516752525E1,-1.691919923E0,2.792405486E-1,-1.882838130E0,2.546693490E0
1.517749325E1,-1.840143800E0,-1.944789477E-2,-2.040154219E0,2.747496435E0
1.518746125E1,-2.108176231E0,-6.670492887E-2,-2.170692444E0,3.026675116E0
1.519742825E1,-2.345524788E0,1.964968741E-1,-2.328824759E0,3.311121005E0
1.520739625E1,-2.429358006E0,6.595140100E-1,-2.528838634E0,3.568159734E0
1.521736325E1,-2.361708879E0,1.139743567E0,-2.683011055E0,3.751697289E0
1.522733125E1,-2.217140913E0,1.528227925E0,-2.731386662E0,3.835579163E0
1.523729925E1,-2.025388479E0,1.830139875E0,-2.722054482E0,3.855021538E0
1.524726625E1,-1.810467482E0,2.073538303E0,-2.726680040E0,3.874549992E0
1.525723425E1,-1.605340004E0,2.232386827E0,-2.731021404E0,3.875454217E0
1.526720225E1,-1.380480886E0,2.218663454E0,-2.638809204E0,3.713692100E0
1.527716925E1,-1.070432663E0,1.996159911E0,-2.439112902E0,3.328626177E0
1.528713725E1,-6.616089940E-1,1.801288486E0,-2.202306747E0,2.921048045E0
1.529710425E1,-2.078265399E-1,1.820954680E0,-2.012098074E0,2.721691841E0
1.530707225E1,2.460134476E-1,2.069175482E0,-1.873617291E0,2.802222608E0
1.531704025E1,5.415031910E-1,2.219603777E0,-1.811948061E0,2.915994240E0
1.532700725E1,5.569000244E-1,1.875315785E0,-1.737246752E0,2.616289970E0
1.533697525E1,3.536960185E-1,1.118540525E0,-1.623122096E0,2.002687974E0
1.534694287E1,4.876919091E-2,1.441016495E-1,-1.502166152E0,1.509849949E0
1.535690988E1,-2.022553235E-1,-6.976181269E-1,-1.469547510E0,1.639252315E0
1.536687787E1,-3.176303506E-1,-1.101471901E0,-1.580083847E0,1.952125598E0
1.537684487E1,-3.261221051E-1,-1.121663213E0,-1.715263247E0,2.075237817E0
1.538681287E1,-3.152231276E-1,-1.073510289E0,-1.761765718E0,2.087009441E0
1.539678087E1,-3.668181300E-1,-1.231697559E0,-1.611436963E0,2.061155866E0
1.540674788E1,-5.456379056E-1,-1.370140791E0,-1.326218963E0,1.983396896E0
1.541671588E1,-6.828333139E-1,-1.549616337E0,-1.039823651E0,1.987160122E0
1.542668388E1,-7.267488241E-1,-1.665951490E0,-8.454479575E-1,2.004579874E0
1.543665087E1,-7.510991693E-1,-2.348382235E0,-7.004167438E-1,2.563129473E0
1.544661887E1,-7.035285830E-1,-2.538593292E0,-5.501264334E-1,2.691105249E0
1.545658587E1,-4.512987435E-1,-2.504160881E0,-3.752108216E-1,2.572017775E0
1.546655387E1,-1.135463342E-1,-2.153516769E0,-2.105026245E-1,2.166757624E0
1.547652187E1,1.841966808E-1,-1.545627117E0,-9.803866595E-2,1.559648416E0
1.548648888E1,4.183107018E-1,-9.537695646E-1,-3.851748630E-2,1.042182241E0
1.549645688E1,6.105174422E-1,-5.381854177E-1,1.914687455E-2,8.140894876E-1
1.550642487E1,8.207992315E-1,-3.403642178E-1,1.344478577E-1,8.986853763E-1
1.551639187E1,1.112225175E0,-2.930313051E-1,3.529735506E-1,1.203121986E0
1.552635987E1,1.474420547E0,-3.486651778E-1,6.874306798E-1,1.663744060E0
1.553632688E1,1.796584129E0,-4.731634259E-1,1.144940972E0,2.182312533E0
1.554629488E1,1.948932171E0,-6.552023888E-1,1.642175913E0,2.631419485E0
1.555626288E1,1.852501273E0,-8.570103049E-1,2.061937094E0,2.901346620E0
1.556622987E1,1.372403860E0,-1.126096249E0,2.387361050E0,2.975076116E0
1.557619787E1,6.461129338E-2,-1.661230564E0,2.686889887E0,3.159626381E0
1.558616587E1,-1.454737782E0,-2.470520496E0,2.804127455E0,4.010344664E0
1.559613287E1,-1.898844957E0,-2.581660509E0,2.302731276E0,3.946283629E0
1.560610087E1,-7.591874003E-1,-2.247880459E0,1.470589280E0,2.791409124E0
1.561606887E1,6.490724683E-1,-1.559304237E0,5.975598097E-1,1.791592169E0
1.562603588E1,1.367820024E0,1.089551225E-1,-2.157348543E-1,1.389008411E0
1.563600387E1,1.385118365E0,2.142000914E0,-7.674872279E-1,2.663786299E0
1.564597087E1,1.115239382E0,3.500553608E0,-1.064194679E0,3.824937223E0
1.565593887E1,9.921265841E-1,3.787086725E0,-1.071678400E0,4.058920499E0
1.566590687E1,1.026946545E0,2.762454748E0,-7.606028318E-1,3.043729966E0
1.567587388E1,8.907784224E-1,8.936275244E-1,-2.500998974E-1,1.286315011E0
1.568584188E1,5.862329602E-1,-6.744616628E-1,1.610459387E-1,9.080217027E-1
1.569580988E1,3.197786808E-1,-1.237894058E0,2.575242817E-1,1.304208135E0
1.570577687E1,2.134438008E-1,-1.282065511E0,3.096760511E-1,1.336094864E0
1.571574487E1,2.244612873E-1,-1.391931534E0,3.386294246E-1,1.450009018E0
1.572571187E1,1.809670329E-1,-1.550632715E0,3.323557377E-1,1.596142607E0
1.573567987E1,-2.358531952E-2,-1.439623117E0,3.116941452E-1,1.473168092E0
1.574564787E1,-1.256102175E-1,-1.265510917E0,2.311780006E-1,1.292570723E0
1.575561488E1,-1.863233596E-1,-1.118275762E0,1.478277147E-1,1.143289161E0
1.576558287E1,-2.882245183E-1,-9.559958577E-1,9.272231162E-2,1.002795532E0
1.577555087E1,-4.196675122E-1,-7.274215817E-1,8.141532540E-2,8.437365902E-1
1.578551787E1,-5.339749455E-1,-3.726630211E-1,1.255202591E-1,6.631457647E-1
1.579548587E1,-5.662575364E-1,7.108937949E-2,2.772916853E-1,6.345013603E-1
1.580545387E1,-4.733041525E-1,5.145950913E-1,5.301789045E-1,8.774477760E-1
1.581542088E1,-2.887620032E-1,9.137606025E-1,8.217633367E-1,1.262393328E0
1.582538888E1,-5.360486358E-2,1.248539805E0,1.087931871E0,1.656900988E0
1.583535587E1,1.634483635E-1,1.482579470E0,1.280601263E0,1.965883223E0
1.584532387E1,2.929832935E-1,1.492615342E0,1.354463339E0,2.036740216E0
1.585529187E1,3.395417631E-1,1.327612042E0,1.335270762E0,1.913319198E0
1.586525887E1,3.478797376E-1,9.606603384E-1,1.250498056E0,1.614817013E0
1.587522687E1,5.015933514E-1,1.684240252E-1,1.116551161E0,1.235576399E0
1.588519488E1,8.114385605E-1,-9.895142317E-1,9.558067918E-1,1.597228091E0
1.589516187E1,1.082115531E0,-1.831681967E0,9.335723519E-1,2.323271440E0
1.590512987E1,1.260503292E0,-2.195047379E0,9.777020216E-1,2.713485358E0
1.591509687E1,1.328970671E0,-2.236552000E0,9.540616870E-1,2.771021760E0
1.592506487E1,1.296029806E0,-2.068238258E0,8.893445134E-1,2.597736787E0
1.593503287E1,1.193794250E0,-1.776054025E0,8.319368958E-1,2.296003399E0
1.594499988E1,1.027295113E0,-1.416203618E0,8.320789337E-1,1.937349552E0
1.595496788E1,8.366599679E-1,-1.008147359E0,8.899345398E-1,1.583775389E0
1.596493588E1,6.448165774E-1,-6.060163379E-1,9.924268723E-1,1.329644809E0
1.597490287E1,4.866546690E-1,-3.047177196E-1,1.083583951E0,1.226311475E0
1.598487087E1,3.974065185E-1,-1.452863961E-1,1.058601618E0,1.140033975E0
1.599483887E1,4.355048835E-1,-1.363078207E-1,9.632038474E-1,1.065835812E0
1.600480587E1,6.784470677E-1,-2.863431275E-1,8.575577736E-1,1.130348683E0
1.601477387E1,1.088140607E0,-4.894759953E-1,8.385374546E-1,1.458348996E0
1.602474088E1,1.527247310E0,-6.517150998E-1,8.696009517E-1,1.874412636E0
1.603470887E1,1.836842656E0,-7.552266121E-1,8.623060584E-1,2.165162792E0
1.604467687E1,1.924097300E0,-8.092644811E-1,7.850084901E-1,2.230089179E0
1.605464387E1,1.787077665E0,-7.886180878E-1,7.028979063E-1,2.075964965E0
1.606461187E1,1.516333342E0,-6.713145375E-1,7.109779716E-1,1.804278162E0
1.607457987E1,1.225798965E0,-4.714099169E-1,8.362820745E-1,1.556977238E0
1.608454688E1,1.004428625E0,-2.623330355E-1,1.026695967E0,1.460068523E0
1.609451488E1,8.667442799E-1,-1.035758704E-1,1.191803694E0,1.477284554E0
1.610448288E1,7.952220440E-1,1.570155844E-2,1.264347434E0,1.493719877E0
1.611444987E1,7.464513183E-1,1.647187322E-1,1.251572847E0,1.466545745E0
1.612441787E1,6.775065660E-1,3.677037954E-1,1.192848563E0,1.420249599E0
1.613438487E1,5.867444277E-1,5.932964683E-1,1.110173225E0,1.388795994E0
1.614435287E1,4.767110944E-1,8.382671475E-1,1.025243402E0,1.407504640E0
1.615432088E1,3.707524240E-1,1.099205852E0,9.475927353E-1,1.497879453E0
1.616428787E1,3.009489775E-1,1.363400817E0,8.507331610E-1,1.634985928E0
1.617425587E1,2.563231885E-1,1.565171838E0,7.300754786E-1,1.745988162E0
1.618422387E1,2.354933470E-1,1.571250796E0,5.870908499E-1,1.693801006E0
1.619419087E1,2.676211894E-1,1.358131647E0,4.472940564E-1,1.454721501E0
1.620415887E1,3.472074866E-1,9.688753486E-1,3.327098191E-1,1.081650731E0
1.621412687E1,4.551613927E-1,5.728028417E-1,2.622241974E-1,7.771978632E-1
1.622409388E1,5.796936154E-1,3.136160374E-1,2.172518969E-1,6.939726892E-1
1.623406188E1,6.666913629E-1,2.288377732E-1,1.605215073E-1,7.229185667E-1
1.624402887E1,6.176486015E-1,2.590575516E-1,2.837233245E-2,6.703772067E-1
1.625399687E1,2.955060005E-1,3.753628433E-1,-1.710947007E-1,5.074391166E-1
1.626396487E1,-2.989431322E-1,5.137688518E-1,-3.039906025E-1,6.676344177E-1
1.627393187E1,-8.583907485E-1,5.001225471E-1,-4.263143837E-1,1.081064842E0
1.628389988E1,-1.229225278E0,4.624233544E-1,-6.192732453E-1,1.452008779E0
1.629386788E1,-1.458486438E0,4.776076376E-1,-8.661267161E-1,1.762233592E0
1.630383487E1,-1.599431038E0,5.117947459E-1,-1.129112840E0,2.023612935E0
1.631380287E1,-1.674562097E0,5.157141089E-1,-1.412242889E0,2.250455340E0
1.632377087E1,-1.701135278E0,4.631499350E-1,-1.707830906E0,2.454598847E0
