Time (s),Gyroscope x (rad/s),Gyroscope y (rad/s),Gyroscope z (rad/s),Absolute (rad/s)
0.003481125,0.235805616,0.231613651,-0.080810502,0.340263881
0.013415125,0.232150942,0.396312237,0.017986724,0.459653099
0.023349125,0.211696267,0.465408206,0.03510046,0.512496
0.033283125,0.175065249,0.324997157,0.077492014,0.377194917
0.043218125,0.112811729,0.129622057,0.137453616,0.220049677
0.053152125,0.046980001,0.078888923,0.206283733,0.225795397
0.063086125,-0.025814578,0.249556527,0.251473576,0.355223608
0.073020125,0.037622806,0.255482942,0.238500461,0.351524507
0.082954125,0.108117484,0.19878903,0.177260011,0.287450136
0.092888125,0.150084868,0.133273512,0.154027537,0.253005491
0.102822125,0.057030559,0.341639757,0.027025376,0.347419889
0.112756125,-0.091301233,0.372994065,-0.145184591,0.410535082
0.122690125,-0.20113185,0.594663858,-0.098120138,0.635379168
0.132624125,-0.202637881,0.66572684,-0.122284293,0.706546379
0.142558125,-0.209457979,0.635653138,-0.080707289,0.674122558
0.152492125,-0.248732105,0.514612019,-0.015527866,0.571781693
0.162426125,-0.29249692,0.373618394,0.014323239,0.474710762
0.172360125,-0.326537251,0.227592692,0.039284594,0.39996036
0.182294125,-0.333403677,0.07464122,0.034702361,0.343414585
0.192229125,-0.299977839,-0.06096356,0.007739567,0.306207708
0.202163125,-0.240659937,-0.154309228,-0.010101215,0.286060444
0.212097125,-0.20683603,-0.171835974,-0.025075182,0.270069454
0.222031125,-0.204440773,-0.142703131,-0.054545458,0.255216418
0.231965125,-0.179927051,-0.091031097,-0.074305885,0.214899439
0.241899125,-0.134446919,-0.036796086,-0.096813321,0.169713715
0.251833125,-0.059973862,-0.002467901,-0.115194499,0.129895063
0.261766333,0.014447907,0.043370426,-0.112011224,0.120980371
0.271700333,0.063708164,0.085669227,-0.095225699,0.14305901
0.281634333,0.077801883,0.104098834,-0.068461992,0.146890247
0.291568333,0.106661551,0.079204917,-0.056540586,0.144384705
0.301502333,0.116008975,0.030962555,-0.003210784,0.120112743
0.311436333,0.118814796,-0.089778572,0.085580952,0.171759271
0.321370333,0.105622828,-0.258417398,0.127460495,0.306890715
0.331304333,0.130721137,-0.331483036,0.127877757,0.378578578
0.341238333,0.175713107,-0.305576593,0.099112697,0.366163183
0.351173333,0.261539608,-0.250624061,0.063364439,0.367736915
0.361107333,0.314974606,-0.227341115,0.016819572,0.38881343
0.371041333,0.332154721,-0.265348881,-0.014253962,0.425370383
0.380975333,0.357965291,-0.325890779,-0.032977846,0.485212827
0.390909333,0.375888795,-0.425336272,-0.032896429,0.568582012
0.400843333,0.360290408,-0.534330189,-0.010631335,0.644539335
0.410777333,0.344483972,-0.631979048,0.003655268,0.719777803
0.420711333,0.283623278,-0.71095109,0.011028496,0.765516325
0.430645333,0.201257631,-0.715489209,-0.054703306,0.745266324
0.440579333,0.094237968,-0.57506603,-0.143250749,0.600085419
0.450513333,-0.016799422,-0.263936549,-0.183374345,0.321824289
0.460447333,0.024694491,-0.047327269,-0.119428128,0.130815771
0.470381333,0.110615753,0.092052914,-0.066287562,0.158441234
0.480315333,0.113080777,0.209961444,-0.013076804,0.238834824
0.490249333,0.037661564,0.307802469,0.054600053,0.314868097
0.500183333,-0.078206979,0.347524315,0.12049678,0.376043821
0.510118333,-0.131584704,0.363456219,0.195691064,0.433255064
0.520052333,-0.132110134,0.407826602,0.225741893,0.48449461
0.529986333,-0.093815997,0.459281355,0.221714601,0.518553921
0.539920333,-0.041070495,0.493419349,0.212772503,0.538907764
0.549854333,0.013519886,0.53208673,0.211698294,0.572813445
0.559788333,0.049491465,0.557436049,0.204443052,0.595803085
0.569722333,0.074842401,0.553577006,0.190982729,0.590358611
0.579656333,0.102157645,0.507778049,0.1791282,0.548052591
0.589590333,0.114961922,0.429984361,0.174237609,0.477976504
0.599524333,0.129664451,0.362946481,0.172915086,0.422424721
0.609458333,0.147548273,0.28495717,0.191510916,0.373694411
0.619392333,0.15810211,0.245971441,0.199837551,0.354165602
0.629326333,0.14970085,0.229727328,0.217992261,0.350293613
0.639260333,0.161337271,0.153863177,0.240116745,0.327657815
0.649194333,0.177913725,0.018189995,0.259649158,0.315280597
0.659128333,0.168841138,-0.128168285,0.283293217,0.353821263
0.669063333,0.139210567,-0.249245092,0.300541133,0.414521013
0.678997333,0.118904226,-0.35152778,0.292263746,0.472364364
0.688931333,0.116107799,-0.420721114,0.271060079,0.513771197
0.698865333,0.111952737,-0.440969914,0.244500369,0.516496187
0.708799333,0.082773969,-0.43043977,0.210257366,0.486146157
0.718733333,0.030644722,-0.437987417,0.176997676,0.473392283
0.728667333,-0.055269349,-0.45631513,0.144327208,0.481776444
0.738601333,-0.194895953,-0.498633295,0.107031487,0.54596276
0.748535333,-0.373126477,-0.558687687,0.073593833,0.675848616
0.758469333,-0.567709506,-0.628011644,0.032413375,0.847197341
0.768403333,-0.755963206,-0.695523441,0.000371625,1.027245523
0.778337333,-0.926704288,-0.760640919,-0.011165455,1.198949587
0.788271333,-1.088158846,-0.807333946,-0.022490427,1.355132316
0.798205333,-1.247580528,-0.831380904,-0.016574748,1.499308542
0.808139333,-1.412099838,-0.846456409,-0.010113006,1.646395055
0.818073333,-1.581206083,-0.861834288,-0.014973809,1.800887346
0.828007333,-1.75529933,-0.854362607,-0.05021508,1.952826863
0.837942333,-1.884041548,-0.870154619,-0.14617835,2.080420564
0.847876333,-1.965607047,-0.872434437,-0.349090874,2.1786733
0.857810333,-1.907616496,-0.73122859,-0.586869895,2.125585148
0.867744333,-1.674857736,-0.464577556,-0.772207379,1.901916133
0.877678333,-1.396122813,-0.145666689,-0.895273387,1.664900037
0.887612333,-1.131280661,0.147405997,-0.949297845,1.484146509
0.897546333,-0.955906987,-0.082490318,-0.954623342,1.353465384
0.907480333,-1.011925697,-0.896667182,-0.896817267,1.622432391
0.917414333,-1.226925611,-1.707422256,-0.77056402,2.239286968
0.927348333,-1.40925169,-2.171668053,-0.579532027,2.652920999
0.937282333,-1.447556138,-2.120279074,-0.371580184,2.594045866
0.947216333,-1.349918842,-1.720741987,-0.191473097,2.195426112
0.957150333,-1.220892429,-1.287543178,-0.073979758,1.775899424
0.967084333,-1.128138423,-1.013696909,-0.020141557,1.516800385
0.977018333,-1.060326099,-0.860718787,0.008844288,1.365725627
0.986952333,-1.02154541,-0.802765787,0.04247757,1.299920104
0.996886333,-0.956778765,-0.887102246,0.048929345,1.305668442
1.006820333,-0.871816456,-0.912222624,0.035986543,1.262342695
1.016755333,-0.775905132,-0.773368359,0.012457245,1.095574085
1.026689333,-0.681488752,-0.659581363,-0.019784052,0.94861262
1.036623333,-0.596415401,-0.609563708,-0.063139513,0.855140832
1.046557333,-0.526933134,-0.527945876,-0.116614915,0.754973121
1.056491333,-0.472937822,-0.410002977,-0.178023949,0.650742
1.066425333,-0.424980849,-0.325179458,-0.230824798,0.582778251
1.076359333,-0.385004938,-0.327483356,-0.259698004,0.568258043
1.086293333,-0.374408484,-0.404963255,-0.243630871,0.602936938
1.096227333,-0.406763494,-0.540657997,-0.186933503,0.701934288
1.106161333,-0.479738206,-0.660744369,-0.100668706,0.822718698
1.116095333,-0.580649674,-0.739980638,-0.006675094,0.940622106
1.126029333,-0.655601859,-0.748098373,0.068979375,0.99710738
1.135963333,-0.654885709,-0.700576663,0.10239619,0.964452141
1.145897333,-0.643657386,-0.582702935,0.100320712,0.874014752
1.155831333,-0.648354113,-0.426505357,0.090412684,0.781309368
1.165765333,-0.66072166,-0.293801427,0.086579598,0.728263975
1.175699333,-0.625464082,-0.25527373,0.073750883,0.67956544
1.185634333,-0.56842494,-0.233269751,0.03916559,0.615674941
1.195568333,-0.514636815,-0.199520305,-0.009081568,0.552034309
1.205502333,-0.447024584,-0.158598587,-0.062533721,0.478429678
1.215436333,-0.342926145,-0.139537811,-0.080731101,0.378928294
1.225370333,-0.190114513,-0.167538375,-0.10355188,0.273743725
1.235304333,-0.029573308,-0.195388377,-0.117087662,0.229697016
1.245238333,0.103134707,-0.272797525,-0.133267567,0.320648564
1.255172333,0.186992586,-0.371864438,-0.145556465,0.440949058
1.265106333,0.235494971,-0.452302396,-0.146471113,0.530555488
1.275040333,0.243427724,-0.486895263,-0.121982016,0.557856313
1.284974333,0.23133418,-0.494734138,-0.092624627,0.55394647
1.294908333,0.203401357,-0.476162851,-0.062839568,0.521586027
1.304842333,0.169860333,-0.490402043,-0.023650765,0.519524836
1.314776333,0.152807042,-0.519111454,0.00309536,0.541143489
1.324710333,0.164976537,-0.565979779,0.031248545,0.590361617
1.334644333,0.292184293,-0.554505289,0.036303494,0.627826186
1.344578333,0.54780972,-0.523602843,0.024764169,0.758200957
1.354512333,0.796493053,-0.517150283,0.116703413,0.956799501
1.364447333,0.905014932,-0.431108862,0.289318562,1.04336576
1.374381333,0.802310348,-0.223642752,0.365259141,0.909468094
1.384315333,0.480405599,0.108822256,0.32074523,0.587800413
1.394249333,0.101706237,0.745586753,0.256719917,0.795077908
1.404183333,-0.187887818,1.339948893,0.18106772,1.365119184
1.414117333,-0.179922029,1.644696593,0.167529285,1.662968695
1.424051333,-0.035305548,2.093621731,0.106932618,2.096648043
1.433985333,0.128295898,2.439459562,-0.002258585,2.442831942
1.443919333,0.304947436,2.155473709,-0.077950232,2.178333328
1.453853333,0.484553695,1.550505638,-0.059094515,1.625531353
1.463787333,0.68745929,1.10742569,0.113167346,1.308357284
1.473721333,0.924207151,1.369868755,0.419635117,1.704931933
1.483655333,1.246286511,2.275712013,0.745851398,2.699701751
1.493589333,1.630573988,3.334408522,1.024826169,3.850625975
1.503523333,2.013854027,4.002706528,1.226020336,4.645470208
1.513457333,2.292076826,4.099280834,1.363450646,4.890472084
1.523391333,2.251283407,3.565922022,1.265331149,4.402855864
1.533326333,1.817844748,2.835011244,0.877029717,3.480090431
1.543260333,1.326615691,2.336359978,0.4944188,2.731837676
1.553194333,0.951998889,2.087533236,0.361050636,2.32259649
1.563128333,0.775438607,1.884052753,0.433536083,2.083005844
1.573062333,0.760550737,1.644327283,0.520868003,1.885087031
1.582996333,0.867964268,1.347209096,0.404558212,1.652876785
1.592930333,1.038573265,1.196401954,0.149044409,1.591297049
1.602864333,1.186751127,1.208612323,-0.069568954,1.695276327
1.612798333,1.299981236,1.278602362,-0.167586863,1.831081803
1.622732333,1.404670715,1.295952439,-0.116488904,1.914722489
1.632666333,1.45894146,1.219805241,-0.015007822,1.901751888
1.642600333,1.463613868,1.069941282,0.09618406,1.815541593
1.652534333,1.461851954,0.899754107,0.190839991,1.727133027
1.662468333,1.457239032,0.780479908,0.261835068,1.673694143
1.672402333,1.475054264,0.696947694,0.308472663,1.660324232
1.682336333,1.506729245,0.684091151,0.332245201,1.687779783
1.692270333,1.50613296,0.715651512,0.340285271,1.701877683
1.702205333,1.476426363,0.763103604,0.348016113,1.698021534
1.712139333,1.436041713,0.934825778,0.349693358,1.748828317
1.722073333,1.419202209,1.23541677,0.321220905,1.90881439
1.732007333,1.385584354,1.507235527,0.309379965,2.070584193
1.741941333,1.297474623,1.55338645,0.339437276,2.052234763
1.751875333,1.216061831,1.306062698,0.366113901,1.821714999
1.761809333,1.218728781,0.880827606,0.402506649,1.556653049
1.771743333,1.274230599,0.46784991,0.450243801,1.43012819
1.781677333,1.272315025,0.213795185,0.488845587,1.379660796
1.791611333,1.18966651,0.143023536,0.551492214,1.319054888
1.801545333,1.044181108,0.24964349,0.604618728,1.232152533
1.811479333,0.896515429,0.419169158,0.629299045,1.172800062
1.821413333,0.793470204,0.524470806,0.633200586,1.142631862
1.831347333,0.73287344,0.559783518,0.616520643,1.109305535
1.841281333,0.666528046,0.565354288,0.587420523,1.053065989
1.851215333,0.554011345,0.53405416,0.537079871,0.938401409
1.861150333,0.407361329,0.498917818,0.464885056,0.79434272
1.871084333,0.268592,0.518102169,0.406636685,0.71128399
1.881018333,0.182307556,0.645131648,0.381357759,0.771274678
1.890952333,0.154557407,0.709419012,0.357189298,0.809164706
1.900886333,0.173768803,0.674766064,0.308578819,0.762053624
1.910820333,0.194787532,0.634455144,0.223689482,0.700365974
1.920754333,0.176332071,0.640660942,0.121828243,0.675560184
1.930688333,0.178715855,0.738757372,0.027282298,0.760556464
1.940622333,0.126385644,0.892626226,-0.035154067,0.902214342
1.950556333,0.102847829,1.084582686,-0.051054206,1.09064376
1.960490333,0.006070065,1.141569138,-0.031852204,1.142029555
1.970424333,-0.181020454,0.927556753,0.000963001,0.94505601
1.980358333,-0.35643357,0.449721962,0.028838042,0.574566242
1.990292333,-0.450288951,-0.113659382,-0.021449629,0.464907175
2.000226333,-0.559232652,-0.517077088,-0.135455638,0.77360074
2.010160333,-0.808739126,-0.729319334,-0.239592955,1.115065222
2.020095333,-1.153586507,-0.936185539,-0.300670594,1.515786264
2.030029333,-1.553526163,-1.229327321,-0.379792571,2.017159289
2.039963333,-2.014432907,-1.536045671,-0.398069113,2.564339146
2.049897333,-2.503321648,-1.888930559,-0.361723334,3.156821455
2.059831333,-2.904240608,-2.240047455,-0.354056209,3.684804189
2.069765333,-3.137508631,-2.569140196,-0.401420236,4.074994474
2.079699333,-3.241633654,-2.79770422,-0.448833644,4.305437177
2.089633333,-3.219532251,-2.774573803,-0.446656227,4.273540627
2.099567333,-3.103731394,-2.37736702,-0.417922825,3.931880212
2.109501333,-2.968147993,-1.649959087,-0.340655476,3.412962592
2.119435333,-2.853728771,-0.82696104,-0.231367707,2.980128098
2.129369333,-2.709830523,-0.070160687,-0.099116996,2.712550122
2.139303333,-2.527842283,0.364947557,0.07022097,2.555015521
2.149237333,-2.35397315,0.405322909,0.229510218,2.399614801
2.159171333,-2.200508356,0.131403491,0.285902441,2.222890935
2.169106333,-1.986788034,-0.312835217,0.192522943,2.020459762
2.179040333,-1.708041072,-0.778531909,0.156898454,1.883648949
2.188974333,-1.386013389,-1.252562165,0.069437318,1.869429494
2.198908333,-1.114239812,-1.531712055,-0.175379306,1.902217148
2.208842333,-1.152332067,-1.241507053,-0.579716921,1.790329765
2.218776333,-1.441196799,-0.670396507,-0.947351575,1.85039312
2.228710333,-1.812374592,-0.12559551,-1.102853179,2.125267284
2.238644333,-2.074825764,-0.037435412,-1.120823264,2.358505491
2.248578333,-2.139548063,-0.608485043,-1.151703238,2.504863332
2.258512333,-2.150675774,-1.269800425,-1.180061579,2.762307863
2.26844725,-2.101915598,-1.719574571,-1.145673752,2.94746573
2.27838125,-1.940870643,-2.115419149,-1.074786067,3.065475839
2.28831525,-1.66172874,-2.383138657,-1.000056982,3.072589499
2.29824925,-1.33686924,-2.570944548,-0.960391819,3.052757389
2.30818325,-1.05755794,-2.686656237,-0.941365659,3.036893122
2.31811825,-0.857493639,-2.625571489,-0.873857021,2.896989313
2.32805225,-0.707445502,-2.439391136,-0.775136292,2.655549759
2.33798625,-0.570135832,-2.213313818,-0.684278131,2.385801644
2.34792025,-0.415098876,-1.871627569,-0.60595721,2.010592195
2.35785425,-0.205617249,-1.43517971,-0.54156673,1.547680127
2.36778825,0.092360392,-0.965944827,-0.494382977,1.08903369
2.37772225,0.445336014,-0.550638556,-0.461151183,0.845096088
2.38765625,0.797837853,-0.205588207,-0.443780184,0.935816543
2.39759025,1.117665648,0.079792224,-0.414264441,1.19463732
2.40752425,1.368885636,0.256900162,-0.350144565,1.436122138
2.41745825,1.513693333,0.347060293,-0.258558899,1.574347819
2.42739225,1.537775278,0.368434817,-0.135268912,1.587071107
2.43732625,1.466148019,0.329354763,-0.011031614,1.502726279
2.44726025,1.278009534,0.26493901,0.15344283,1.314171127
2.45719525,1.061882615,0.214471638,0.291310579,1.12180864
2.46712925,0.716115892,0.040740333,0.383722007,0.813464396
2.47706325,0.250761569,-0.21323745,0.337377787,0.471354797
2.48699725,-0.13337943,-0.491375864,0.143022969,0.528862819
2.49693125,-0.309442908,-0.757760048,-0.113243014,0.826304534
2.50686525,-0.357026398,-0.911929667,-0.373356342,1.048083262
2.51679925,-0.396184623,-1.025644302,-0.523139715,1.217613918
2.52673325,-0.373835891,-0.970294952,-0.494318694,1.151336849
2.53666725,-0.274164587,-0.793017209,-0.349102288,0.908798615
2.54660125,-0.292755336,-0.724541962,-0.210205674,0.809229984
2.55653525,-0.319880903,-0.531367421,-0.066996157,0.623829795
2.56646925,0.06879919,-0.230133235,0.008977171,0.240364773
2.57640325,0.820073009,0.164146394,-0.016799791,0.836508225
2.58633725,1.336021543,0.490525573,0.045802601,1.423961649
2.59627225,1.242045403,0.567588747,0.351585388,1.410122708
2.60620625,0.693543077,0.49366045,0.750177801,1.134667075
2.61614025,0.460029721,0.569552422,0.937654793,1.189627596
2.62607425,0.528342962,0.536294341,0.82195133,1.11461289
2.63600825,0.66050154,0.606017649,0.559338212,1.056588335
2.64594225,0.854229212,0.950795054,0.307198405,1.314568234
2.65587625,1.153280854,1.526552677,0.131703436,1.91775014
2.66581025,1.505784035,2.179059744,0.105372228,2.650809354
2.67574425,1.792752504,2.703436852,0.24402374,3.253010903
2.68567825,1.994664073,2.937685966,0.478238374,3.582931139
2.69561225,2.123317003,2.901182413,0.777444541,3.678281461
2.70554625,2.160429955,2.594615459,1.042874694,3.533705505
2.71548025,2.044646025,2.277885914,1.190805912,3.284411716
2.72541425,1.799171329,2.133265972,1.214511752,3.043497983
2.73534925,1.4455899,1.948642612,1.180012465,2.698030319
2.74528325,1.152751446,1.602886319,1.115404129,2.267643451
2.75521725,1.227152944,1.042846322,0.868904412,1.829870945
2.76515125,1.593083262,0.402430654,0.413280666,1.694303875
2.77508525,1.902554631,-0.050378453,-0.056416407,1.90405749
2.78501925,2.01369977,0.040183671,-0.360125154,2.046042917
2.79495325,1.926451206,0.527387142,-0.491512716,2.056923965
2.80488725,1.776067734,1.057663798,-0.480460584,2.122242135
2.81482125,1.632008195,1.428181171,-0.435940832,2.2120571
2.82475525,1.527931571,1.616390705,-0.365770519,2.254125522
2.83468925,1.442415953,1.60579586,-0.246586606,2.172544379
2.84462325,1.358045578,1.466120839,-0.093834348,2.000650642
2.85455725,1.346737385,1.335009098,0.054985754,1.897096283
2.86449125,1.379735351,1.307329535,0.176208049,1.908881722
2.87442525,1.450530171,1.301987052,0.278488398,1.968949936
2.88436025,1.508838773,1.240445375,0.382469386,1.990372328
2.89429425,1.51166904,1.113422513,0.466591805,1.93456995
2.90422825,1.44266355,0.920917571,0.521224678,1.789145734
2.91416225,1.278829336,0.67857486,0.555086076,1.550480204
2.92409625,1.1034199,0.406435221,0.549034834,1.297753564
2.93403025,0.982167363,0.234634951,0.52961719,1.140263416
2.94396425,0.946508467,0.215567783,0.505684376,1.094561298
2.95389825,0.942209721,0.255538404,0.503337383,1.098365857
2.96383225,0.965987742,0.33752194,0.513351142,1.144806872
2.97376625,1.032238007,0.398756504,0.527109027,1.225710397
2.98370025,1.089912295,0.458108783,0.542452037,1.300779259
2.99363425,1.08515954,0.490443885,0.550139487,1.311777377
3.00356825,0.991691947,0.510953963,0.572481275,1.253898592
3.01350225,0.825715005,0.531375825,0.594038248,1.147626672
3.02343725,0.651993036,0.598629177,0.607237935,1.073401006
3.03337125,0.494861573,0.69014442,0.595445037,1.037179873
3.04330525,0.344329864,0.733066857,0.574308336,0.992864611
3.05323925,0.219215885,0.67313391,0.537843585,0.889067256
3.06317325,0.140007079,0.54501909,0.512100399,0.76085124
3.07310725,0.104870021,0.439709246,0.441433072,0.631826796
3.08304125,0.120632738,0.40605408,0.306839317,0.523051182
3.09297525,0.115656547,0.433443874,0.145160392,0.471509881
3.10290925,0.002259685,0.474864841,0.015331552,0.475117648
3.11284325,-0.219998956,0.482966095,-0.055179864,0.533573432
3.12277725,-0.474601924,0.432265103,-0.114735335,0.65212292
3.13271125,-0.689733624,0.250571966,-0.209252208,0.763089293
3.14264525,-0.873433113,-0.100404419,-0.364219964,0.951642072
3.15257925,-1.038088441,-0.477541655,-0.590686798,1.286306549
3.16251325,-1.217381477,-0.747873783,-0.747578979,1.612515794
3.17244825,-1.521098614,-1.0740062,-0.799353659,2.026375232
3.18238225,-2.009457827,-1.387527943,-0.745974839,2.553357203
3.19231625,-2.566649437,-1.649031878,-0.586269975,3.10655886
3.20225025,-3.000258684,-1.909699917,-0.398489445,3.578728794
3.21218425,-3.264948845,-2.121795416,-0.330132753,3.907799174
3.22211825,-3.446661711,-2.282827616,-0.317485124,4.146272504
3.23205225,-3.464435816,-2.109492779,-0.217807665,4.061984181
3.24198625,-3.315824986,-1.525061846,-0.131055981,3.652079495
3.25192025,-3.126199245,-1.02380836,-0.117231824,3.291663498
3.261854208,-2.972899914,-0.482761562,-0.084810495,3.013035918
3.271788208,-2.842464685,0.269657761,0.014100259,2.855261742
3.281722208,-2.731935263,0.845572174,0.114665754,2.862099023
3.291656208,-2.639516354,0.933910251,0.170294166,2.80503744
3.301590208,-2.497758865,0.515996635,0.11671482,2.553169447
3.311524208,-2.308702707,-0.081456214,-0.059145123,2.310896244
3.321459208,-2.015996933,-0.59553045,-0.163729042,2.10848461
3.331393208,-1.567084908,-1.202565908,-0.221483201,1.987705884
3.341327208,-1.191184998,-1.456192851,-0.323974162,1.909025557
3.351261208,-1.145929098,-1.160933614,-0.498594999,1.705730731
3.361195208,-1.441529751,-0.52159971,-0.74869746,1.706054561
3.371129208,-1.823964715,0.101319753,-0.927678883,2.048829198
3.381063208,-2.055731535,0.334503978,-1.024862409,2.321264313
3.390997208,-2.109333515,-0.125899434,-0.982739329,2.330432392
3.400931208,-2.113466024,-1.033023477,-0.843475163,2.499065123
3.410865208,-2.073560953,-1.71772325,-0.713977098,2.785676128
3.420799208,-1.964218378,-1.965071201,-0.706200421,2.866771302
3.430733208,-1.793187499,-2.060528755,-0.750144422,2.832669556
3.440667208,-1.584189534,-2.220278263,-0.792831719,2.840400356
3.450601208,-1.396870136,-2.428767681,-0.812663257,2.917289872
3.460536208,-1.22357738,-2.504981995,-0.786335826,2.896618793
3.470470208,-1.000286937,-2.414172649,-0.748157501,2.718187481
3.480404208,-0.720168173,-2.224707842,-0.700075209,2.440916319
3.490338208,-0.397517473,-1.928415298,-0.658251762,2.076078295
3.500272208,-0.078677416,-1.554792166,-0.585486472,1.663238775
3.510206208,0.217765376,-1.10459125,-0.497365952,1.230819434
3.520140208,0.487107635,-0.676627636,-0.386781394,0.919074889
3.530074208,0.772563577,-0.26978001,-0.310189068,0.875130271
3.540008208,1.038612843,0.05021875,-0.275181562,1.075622355
3.549942208,1.114298105,0.179911166,-0.232779384,1.152481903
3.559876208,0.844034493,0.175024271,-0.17554538,0.879683978
3.569810208,0.564496696,0.168589935,-0.130758345,0.603470654
3.579744208,0.68235141,0.177874252,-0.120486803,0.715373865
3.589678208,0.881557643,0.144901067,-0.112942532,0.900497759
3.599612208,0.854917526,0.074891351,-0.119123727,0.866419733
3.609546208,0.716951847,0.042579696,-0.119400926,0.728072498
3.619481208,0.575027764,0.047353409,-0.128240228,0.591054
3.629415208,0.485803038,0.005537254,-0.147499412,0.507731553
3.639349208,0.419253021,-0.209498629,-0.120077364,0.483819538
3.649283208,0.263607055,-0.577608109,-0.029205021,0.635588499
3.659217208,0.006251693,-0.868035972,0.081553183,0.871880986
3.669151208,-0.239563316,-1.123999953,0.123975404,1.155913655
3.679085208,-0.362817585,-1.488555312,0.103560671,1.53562962
3.689019208,-0.434301883,-1.639543176,0.031629492,1.696384501
3.698953208,-0.194237381,-1.315291405,0.034114219,1.329993767
3.708887208,0.474478573,-0.624016225,0.090371557,0.789109108
3.718821208,1.223416805,0.029360518,0.023090523,1.223986884
3.728755208,1.489195108,0.556655049,-0.029677203,1.590109321
3.738689208,1.02738595,0.84028542,0.353135169,1.373428529
3.748623208,0.276074529,0.999600708,0.86880964,1.352866924
3.758558208,0.118003935,1.389422774,0.864001334,1.640402048
3.768492208,0.265111089,1.316574454,0.397355348,1.400551126
3.778426208,0.444354087,1.119142294,0.106333092,1.208816262
3.788360208,0.746178627,1.170797825,0.022215331,1.388540101
3.798294208,1.15587616,1.447126031,0.014461538,1.8521427
3.808228208,1.609253168,1.880699754,0.060622491,2.475964945
3.818162208,2.079447746,2.299674749,0.051099826,3.100841511
3.828096208,2.493202925,2.4812994,0.097020715,3.518852165
3.838030208,2.716349602,2.457221508,0.293554276,3.674597503
3.847964208,2.650657892,2.375411272,0.522197723,3.597395785
3.857898208,2.315075397,2.419066429,0.673273802,3.415370272
3.867832208,1.703387141,2.595718622,0.785087228,3.202443579
3.877766208,1.060471535,2.646184921,0.895363927,2.988071464
3.887700208,0.738400996,2.193266153,0.878273845,2.475281276
3.897634208,0.87990272,1.393206716,0.572701454,1.744488666
3.907569208,1.291449428,0.560642362,0.131590754,1.414028857
3.917503208,1.672662497,0.029418455,-0.249401599,1.691409599
3.927437208,1.837424874,0.024238586,-0.403606594,1.881386712
3.937371208,1.878136396,0.420812577,-0.365375042,1.959075922
3.947305208,1.83731854,0.854028523,-0.255876929,2.042199093
3.957239208,1.774589658,1.156620383,-0.136993691,2.122664937
3.967173208,1.668053985,1.275243402,-0.063632615,2.100642506
3.977107208,1.56139946,1.255328059,0.007211194,2.003464203
3.987041208,1.49871242,1.214985967,0.141680583,1.934529195
3.996975208,1.468236208,1.180965424,0.286988497,1.905979877
4.006909208,1.502586842,1.110937238,0.437836081,1.919283511
4.016843208,1.57008791,0.964834392,0.55406177,1.924335182
4.026777208,1.662609696,0.877757907,0.578050137,1.966944815
4.036711208,1.719974518,0.880296409,0.577410161,2.016590341
4.046645208,1.690245867,0.85838455,0.587330103,1.984618798
4.056579208,1.556439042,0.84980464,0.614619255,1.876813056
4.066514208,1.391191244,0.838371575,0.650863409,1.749829464
4.076448208,1.272126198,0.766625464,0.680265486,1.633640351
4.086382208,1.249623537,0.633582652,0.725611389,1.577814263
4.096316208,1.311420083,0.466326565,0.767004907,1.589207232
4.106250208,1.400923014,0.277371883,0.783066988,1.628715555
4.116184208,1.422671676,0.124395624,0.773595691,1.624167251
4.126118208,1.336791039,0.16878444,0.716935575,1.526268353
4.136052208,1.161412835,0.406076074,0.671596825,1.401720317
4.145986208,0.918707788,0.737801015,0.63047874,1.336367382
4.155920208,0.627322018,1.03831327,0.581277132,1.345180458
4.165854208,0.333848745,1.174878597,0.555793285,1.341901963
4.175788208,0.091348782,1.080953598,0.590398669,1.235061079
4.185722208,-0.003182662,0.771992147,0.629482269,0.99610739
4.195656208,0.063277587,0.394259006,0.604931355,0.724835264
4.205591208,0.176005661,0.146503285,0.498771369,0.548829741
4.215525208,0.260870218,0.132258832,0.316752017,0.431135141
4.225459208,0.234968051,0.263244629,0.082253486,0.362316651
4.235393208,0.068589188,0.430202991,-0.135196537,0.456132868
4.245327208,-0.165816739,0.424867481,-0.270493001,0.530258457
4.255261208,-0.438975066,0.154711351,-0.329146475,0.570063253
4.265194875,-0.7280038,-0.311838537,-0.408437788,0.891097207
4.275128875,-0.973685741,-0.839941502,-0.494928747,1.37786796
4.285062875,-1.222417116,-1.296531916,-0.604416907,1.881653106
4.294996875,-1.542416096,-1.551898241,-0.705938756,2.299083533
4.304930875,-1.983533144,-1.673103452,-0.713264823,2.691175505
4.314864875,-2.464324713,-1.822802186,-0.645280182,3.132393751
4.324798875,-2.8554492,-2.006835699,-0.55199188,3.53350742
4.334732875,-3.116972923,-2.124298573,-0.529458106,3.809001249
4.344666875,-3.247682333,-2.16199398,-0.570675373,3.94301013
4.354600875,-3.268991709,-1.876129627,-0.523876667,3.805340449
4.364535875,-3.218476295,-1.30644846,-0.410539418,3.497704941
4.374469875,-3.169959068,-0.61472857,-0.278674871,3.241017031
4.384403875,-3.166115046,-0.035178464,-0.201152772,3.172693563
4.394337875,-3.171016216,0.455193669,-0.116558798,3.205640509
4.404271875,-3.124271154,0.838889301,0.002943972,3.234936502
4.414205875,-2.949351072,0.962555587,0.132471591,3.105275145
4.424139875,-2.705245972,0.86689949,0.234388009,2.850404924
4.434073875,-2.460837841,0.738976419,0.197183907,2.576953729
4.444007875,-2.21909523,0.71466732,0.06343361,2.3322
4.453941875,-1.705817699,0.286264569,-0.202693671,1.741506862
4.463875875,-1.051792741,-0.619032085,-0.49555853,1.317211809
4.473809875,-0.779707909,-1.288082361,-0.73576957,1.675845295
4.483743875,-1.023459435,-1.285699964,-0.967385828,1.906916084
4.493677875,-1.522573113,-0.726115584,-1.16808629,2.051803672
4.503611875,-1.921682477,-0.326520711,-1.292048097,2.338561011
4.513545875,-2.154453278,-0.386437029,-1.321030259,2.556584332
4.523480875,-2.259159803,-0.825153887,-1.290187716,2.729334406
4.533414875,-2.262122154,-1.461546302,-1.171379566,2.936910676
4.543348875,-2.212349415,-2.087108612,-0.970502973,3.192552006
4.553282875,-2.064949512,-2.409529686,-0.806751847,3.274247752
4.563216875,-1.87278378,-2.584810257,-0.717527151,3.271606389
4.573150875,-1.69549346,-2.686409235,-0.670789778,3.246760166
4.583084875,-1.527840972,-2.657312155,-0.646049023,3.132568477
4.593018875,-1.324459314,-2.507128716,-0.619862139,2.902432763
4.602952875,-1.024144888,-2.254226446,-0.590122581,2.545320075
4.612886875,-0.640614688,-1.965331554,-0.558771849,2.141294299
4.622820875,-0.221762821,-1.643097878,-0.547335207,1.746002638
4.632754875,0.173512593,-1.330974102,-0.635199308,1.484950114
4.642688875,0.537989378,-0.983938038,-0.688033462,1.315658268
4.652622875,0.850121975,-0.65546006,-0.674348831,1.267707225
4.662556875,1.136335731,-0.362898588,-0.63999635,1.353716959
4.672490875,1.429609656,-0.128431246,-0.608009398,1.558830902
4.682425875,1.676800132,0.014573625,-0.579470754,1.774163867
4.692359875,1.746898174,0.044347763,-0.530749559,1.826284493
4.702293875,1.424783349,-0.054529238,-0.426549971,1.488262715
4.712227875,0.935417712,-0.199633703,-0.298651129,1.002024155
4.722161875,0.738030076,-0.286531389,-0.179711595,0.811840432
4.732095875,0.643635094,-0.313637823,-0.058593955,0.718378779
4.742029875,0.367915303,-0.34172228,0.020089483,0.502532958
4.751963875,-0.030295985,-0.372008294,0.021221593,0.373842712
4.761897875,-0.24089931,-0.56739676,-0.027046794,0.617011418
4.771831875,-0.202379346,-0.865114212,-0.100988656,0.894191651
4.781765875,-0.113091782,-1.103530169,-0.109342583,1.114685778
4.791699875,-0.147642031,-1.175674915,-0.033291757,1.185376741
4.801633875,-0.21520862,-1.159075856,-0.040557198,1.179583179
4.811567875,-0.328678191,-1.058828592,-0.062545858,1.110432044
4.821501875,-0.438221186,-0.903568804,0.040858638,1.005059113
4.831435875,-0.431534797,-0.512444675,0.113862008,0.679548661
4.841369875,-0.132793188,-0.134033218,0.086732656,0.20765714
4.851304875,0.33905822,0.193037316,0.070393622,0.39645825
4.861238875,0.242191762,0.456673503,0.113516822,0.529238705
4.871172875,-0.166936904,0.578463614,0.064742357,0.605540796
4.881106875,-0.120773599,0.657013118,0.044635996,0.66951092
4.891040875,0.270896435,0.587718189,0.000364403,0.647145795
4.900974875,0.769904256,0.312344939,-0.007534386,0.830884282
4.910908875,1.330596447,0.373881549,0.12420287,1.387696174
4.920842875,1.865403295,1.234354258,0.319799572,2.259564483
4.930776875,2.311692715,2.354476452,0.522729218,3.340767637
4.940710875,2.605646372,2.995291233,0.695025682,4.030412297
4.950644875,2.773984194,3.13672924,0.854114413,4.273589834
4.960578875,2.787046432,2.977751017,1.031324863,4.206929986
4.970512875,2.607625723,2.647670746,1.069701076,3.867057367
4.980446875,2.251521111,2.47649312,0.919701517,3.471054071
4.990380875,1.742609382,2.316780806,0.777495086,3.001442881
5.000315875,1.262222886,1.969317079,0.697887003,2.440996239
5.010249875,1.196972013,1.343080401,0.501446962,1.867633802
5.020183875,1.557960272,0.602891207,0.157832041,1.677983602
5.030117875,1.905781627,0.121057466,-0.260273576,1.927278094
5.040051875,2.008049965,0.24408482,-0.579450428,2.104187458
5.049985875,1.944401979,0.684893131,-0.723495245,2.184770704
5.059919875,1.811630607,1.072541833,-0.715594828,2.223606844
5.069853875,1.743493319,1.325201273,-0.621508241,2.276444565
5.079787875,1.771819472,1.370310545,-0.467788368,2.288213537
5.089721875,1.824137807,1.275095582,-0.299147934,2.245626186
5.099655875,1.867833257,1.040247083,-0.118674755,2.141261022
5.109589875,1.826577187,0.791357934,0.091109373,1.992719879
5.119523875,1.711664915,0.643246114,0.318569511,1.856084286
5.129457875,1.603792429,0.600224078,0.496260673,1.782889159
5.139391875,1.574316025,0.727955461,0.607663095,1.837836918
5.149325875,1.557042718,0.873836458,0.679954588,1.910578557
5.159259875,1.548583865,0.946943879,0.729557157,1.956289432
5.169193875,1.525316596,0.972906232,0.766633391,1.964908143
5.179128875,1.47053349,0.947399497,0.777691424,1.914376792
5.189062875,1.411631584,0.83783412,0.773633063,1.814711508
5.198996875,1.359797239,0.647917449,0.765349448,1.689557732
5.208930875,1.333592534,0.439198911,0.75958693,1.596351163
5.218864875,1.341784954,0.259500682,0.748775661,1.558330022
5.228798875,1.375103831,0.150683373,0.714271486,1.556855736
5.238732875,1.389358044,0.115042754,0.649648905,1.538048864
5.248666875,1.344973803,0.174901277,0.560264945,1.467461003
5.258600875,1.197445989,0.317876577,0.456080765,1.320201529
5.268534958,0.887560427,0.570286453,0.365088016,1.11636885
5.278468958,0.510783613,0.877547085,0.311032742,1.061946398
5.288402958,0.210609674,1.073382258,0.319007307,1.139417206
5.298336958,0.022563644,0.992392004,0.365196764,1.057695459
5.308270958,-0.078264698,0.637584925,0.392677665,0.752884883
5.318204958,-0.092283063,0.235555664,0.335870385,0.420489655
5.328138958,-0.030557116,0.083976522,0.180401966,0.201322286
5.338072958,0.061564431,0.197891951,-0.038829226,0.210853295
5.348007958,0.130053744,0.434429646,-0.25706169,0.521271336
5.357941958,0.076795526,0.607505083,-0.405201942,0.734267385
5.367875958,-0.112106748,0.563625753,-0.461806625,0.737229456
5.377809958,-0.397348315,0.274939001,-0.470220238,0.674228603
5.387743958,-0.681379795,-0.112543762,-0.469033003,0.834827216
5.397677958,-0.980454326,-0.485606283,-0.489150017,1.198487333
5.407611958,-1.277368784,-0.792722583,-0.528293729,1.5934787
5.417545958,-1.685660839,-1.087567329,-0.561953485,2.083277917
5.427479958,-2.201195002,-1.317217827,-0.52946341,2.619284968
5.437413958,-2.674315214,-1.547894001,-0.43210867,3.120040962
5.447347958,-3.041383505,-1.733975172,-0.373919129,3.520866234
5.457281958,-3.315876961,-1.835144877,-0.416035205,3.812595183
5.467215958,-3.485892296,-1.944566727,-0.484958887,4.020941429
5.477149958,-3.501397848,-1.744676352,-0.439550489,3.936608578
5.487083958,-3.441686392,-1.280578256,-0.399696261,3.693892661
5.497017958,-3.384016514,-0.747274935,-0.373577893,3.48562018
5.506952958,-3.330113411,-0.30077517,-0.368697375,3.363935015
5.516886958,-3.263203144,0.21087566,-0.32421726,3.286043234
5.526820958,-3.096895456,0.772451103,-0.168654561,3.19623005
5.536754958,-2.834290028,1.053266406,0.039355744,3.02392443
5.546688958,-2.552340269,0.893080413,0.157025382,2.708632578
5.556622958,-2.270034075,0.387162685,0.030728165,2.303018425
5.566556958,-1.94913137,-0.145129994,-0.048868656,1.955137836
5.576490958,-1.441567421,-1.114860773,-0.147354722,1.82831742
5.586424958,-1.242395163,-1.679147124,-0.341395289,2.116514008
5.596358958,-1.470267415,-1.276957393,-0.601831496,2.038260926
5.606292958,-1.830308676,-0.437602013,-0.918564439,2.094107447
5.616226958,-2.102362394,0.239882216,-1.113933682,2.391300768
5.626160958,-2.139186382,0.378634214,-1.278777003,2.520863517
5.636094958,-2.113082409,-0.025037268,-1.321079969,2.492187075
5.646028958,-2.086761951,-0.704095364,-1.163125753,2.490619851
5.655962958,-2.012381077,-1.397564411,-0.952337444,2.628651839
5.665896958,-1.877200723,-1.903609753,-0.805964768,2.792345224
5.675830958,-1.733806133,-2.254246712,-0.767385066,2.945605504
5.685765958,-1.612618208,-2.465752125,-0.757645905,3.042120698
5.695699958,-1.492661119,-2.511991739,-0.738410652,3.013866288
5.705633958,-1.340598941,-2.467499971,-0.704218864,2.895114132
5.715567958,-1.113466501,-2.307383299,-0.648742557,2.642856833
5.725501958,-0.780628145,-2.112828493,-0.64826107,2.343857282
5.735435958,-0.375697553,-1.886063695,-0.642647505,2.027653996
5.745369958,0.020538185,-1.619475961,-0.627620339,1.736960418
5.755303958,0.345139563,-1.317598462,-0.610354006,1.492554534
5.765237958,0.641282558,-0.924879432,-0.589489222,1.270489207
5.775171958,0.963234544,-0.489880919,-0.590214252,1.231323258
5.785105958,1.335601807,-0.132466868,-0.611075282,1.474717823
5.795039958,1.642377019,0.089204207,-0.593461096,1.748586782
5.804973958,1.717643023,0.196025997,-0.524857819,1.806709571
5.814907958,1.450933814,0.281857193,-0.420742542,1.536774771
5.824841958,1.094958425,0.524021626,-0.27287212,1.24418319
5.834775958,0.889885187,0.770789146,-0.095940076,1.18119264
5.844709958,0.639528871,0.777102709,0.108241558,1.012226275
5.854644958,0.45268479,0.575057864,0.15424861,0.747935626
5.864578958,0.358108997,0.114268161,0.095127776,0.387748063
5.874512958,0.303969413,-0.535858691,-0.044764157,0.617693913
5.884446958,0.267643899,-1.136668801,-0.190354377,1.183166941
5.894380958,0.210001826,-1.457143068,-0.216350719,1.488010189
5.904314958,0.063424364,-1.46688807,-0.088097133,1.470899169
5.914248958,-0.048310421,-1.273592234,0.095094562,1.278050879
5.924182958,-0.127052367,-1.121674299,0.212550074,1.14868319
5.934116958,-0.136861756,-0.990326047,0.33609423,1.054720888
5.944050958,-0.059896398,-0.584126055,0.422883183,0.72361662
5.953984958,0.062349088,-0.058397744,0.286014259,0.298499349
5.963918958,0.382426441,0.640136659,0.037953593,0.746636056
5.973852958,0.416383266,1.126022696,0.002720995,1.200545518
5.983786958,0.203108281,1.017961502,-0.018648742,1.038193801
5.993720958,0.157588363,0.875561297,-0.090406135,0.894211913
6.003654958,0.376007795,0.921773255,-0.105414644,1.001079439
6.013588958,0.624088049,0.874770582,-0.083800465,1.077836714
6.023522958,0.951889873,0.855582237,0.018427635,1.280021434
6.033457958,1.38840127,1.188692212,0.192769542,1.837881214
6.043391958,1.850653529,1.79637301,0.39772135,2.609608543
6.053325958,2.319347382,2.329428196,0.557117105,3.334064706
6.063259958,2.701242685,2.656612158,0.675867438,3.848518805
6.073193958,2.945620537,2.621779442,0.801922858,4.024113326
6.083127958,2.922920227,2.3584373,0.918446302,3.866423769
6.093061958,2.512564659,2.228114605,0.8857463,3.473042235
6.102995958,1.872832298,2.274410725,0.666082382,3.020614292
6.112929958,1.19577384,2.316011906,0.52630806,2.659095034
6.122863958,0.79094702,1.995972514,0.537451029,2.213223232
6.132797958,0.837876201,1.390313864,0.450130552,1.684525655
6.142731958,1.210384011,0.789532423,0.165423468,1.454563792
6.152665958,1.63321197,0.449655443,-0.144138291,1.700102116
6.162599958,1.918662667,0.476382911,-0.306958646,2.000607587
6.172533958,2.011723042,0.72599721,-0.316794664,2.162050046
6.182467958,1.952415228,1.029886246,-0.252642035,2.221805324
6.192401958,1.886176348,1.164462805,-0.188583329,2.224679417
6.202335958,1.835754991,1.21109128,-0.118538477,2.202450872
6.212269958,1.789166689,1.215577483,-0.05665281,2.163782706
6.222204958,1.71819222,1.153293371,0.014041864,2.069412303
6.232138958,1.62330699,1.05802691,0.123891555,1.94162191
6.242072958,1.571081638,0.989686787,0.270573139,1.876429395
6.252006958,1.582370996,0.970231295,0.396156281,1.897942711
6.261940958,1.663203001,1.056644559,0.438469648,2.018662324
6.271874583,1.688763142,1.150516391,0.455358654,2.093552105
6.281808583,1.624002814,1.193880916,0.492816299,2.074995105
6.291742583,1.504735947,1.165163159,0.574325681,1.987884666
6.301676583,1.380502105,1.093935251,0.675838947,1.886594466
6.311610583,1.2984128,0.916781664,0.738092661,1.752468315
6.321544583,1.276561379,0.71470207,0.75542587,1.646534618
6.331478583,1.297966242,0.517067254,0.746232927,1.583962907
6.341412583,1.330392599,0.347558141,0.732011676,1.557749088
6.351346583,1.351343989,0.229735881,0.712327421,1.544771668
6.361280583,1.342006683,0.207324848,0.68607372,1.521401551
6.371214583,1.273386717,0.297370017,0.640903056,1.456262128
6.381148583,1.179071426,0.461791694,0.578660429,1.392231622
6.391082583,1.080273151,0.631456673,0.490148097,1.343864863
6.401017583,0.925616682,0.785003126,0.404450506,1.279287442
6.410951583,0.673894465,0.910651743,0.378279209,1.194368246
6.420885583,0.36344555,0.939882874,0.427452624,1.094617847
6.430819583,0.119190671,0.759006321,0.49633497,0.914683232
6.440753583,0.023532594,0.443549842,0.493487805,0.663943114
6.450687583,0.025539353,0.301584423,0.365266442,0.474367997
6.460621583,0.09951105,0.382088333,0.147112787,0.421350348
6.470555583,0.111881576,0.497862875,-0.078508385,0.516283349
6.480489583,-0.058107466,0.62994051,-0.281292915,0.692334621
6.490423583,-0.369075239,0.700491369,-0.449964255,0.910698919
6.500357583,-0.694421887,0.494017571,-0.515944898,0.996230022
6.510291583,-0.935260177,0.034055144,-0.54818517,1.08460976
6.520225583,-1.075409532,-0.485366732,-0.596563339,1.322109807
6.530159583,-1.301584125,-0.983341038,-0.670455813,1.763686998
6.540093583,-1.701104164,-1.37527895,-0.683433115,2.29177407
6.550027583,-2.250572205,-1.586563349,-0.56722194,2.811405207
6.559961583,-2.768686533,-1.840034723,-0.367068619,3.344561596
6.569895583,-3.15586257,-1.94387877,-0.250818014,3.714975492
6.579830583,-3.470775366,-1.800941348,-0.279148191,3.920152432
6.589764583,-3.67368722,-1.679248333,-0.307850242,4.051002903
6.599698583,-3.694893122,-1.445397019,-0.248516619,3.975319891
6.609632583,-3.542054892,-1.117295265,-0.222450346,3.720750693
6.619566583,-3.27038002,-0.990948319,-0.276399046,3.428375779
6.629500583,-3.081383705,-0.715892792,-0.263129801,3.174376367
6.639434583,-2.976660967,-0.113947578,-0.215307698,2.986612122
6.649368583,-2.853779793,0.525143445,-0.112178698,2.903862738
6.659302583,-2.729640484,0.881304502,-0.007583574,2.868395424
6.669236583,-2.617716074,0.85799545,0.025015952,2.754853796
6.679170583,-2.453688622,0.431690454,-0.071660258,2.4924044
6.689104583,-2.145055056,-0.114579096,-0.166870803,2.154584746
6.699038583,-1.670590281,-0.859480202,-0.249800593,1.895251551
6.708972583,-1.342078924,-1.362078428,-0.367098808,1.947099129
6.718906583,-1.38427639,-1.086340427,-0.55053997,1.843759992
6.728840583,-1.706124306,-0.267506003,-0.765013397,1.888826383
6.738774583,-1.936992645,0.353878736,-0.941123426,2.182403256
6.748708583,-2.024402857,0.358000815,-1.113542318,2.338022242
6.758642583,-2.080015659,-0.333837241,-1.218785048,2.43379322
6.768577583,-2.135775089,-1.024404526,-1.20682478,2.658451789
6.778511583,-2.1034832,-1.595388651,-1.094176531,2.857818889
6.788445583,-2.003383636,-2.013670444,-0.961473286,2.998807352
6.798379583,-1.881993413,-2.212276697,-0.852600574,3.027043959
6.808313583,-1.72923243,-2.25730896,-0.775428772,2.947368033
6.818247583,-1.535018444,-2.228282213,-0.750736475,2.808047097
6.828181583,-1.290139556,-2.221647263,-0.72049433,2.668199526
6.838115583,-1.0108006,-2.213434458,-0.645504534,2.517476128
6.848049583,-0.670939684,-2.11084938,-0.544614673,2.280888053
6.857983583,-0.264341831,-1.955829501,-0.555061162,2.050180122
6.867917583,0.17509298,-1.627931595,-0.566872776,1.732675265
6.877851583,0.564342201,-1.149511576,-0.568475783,1.401079476
6.887785583,0.893429339,-0.664381206,-0.537332475,1.236262334
6.897719583,1.208654642,-0.229212478,-0.516616523,1.334270226
6.907653583,1.548019409,0.110015318,-0.541351438,1.643632818
6.917587583,1.846970916,0.332273155,-0.535289228,1.951471642
6.927521583,1.933865786,0.333164185,-0.440344542,2.011153541
6.937455583,1.783009171,0.123398185,-0.274567038,1.8082411
6.947389583,1.445477486,-0.151952833,-0.070680097,1.455159957
6.957323583,0.976401687,-0.413804948,-0.037313085,1.061125372
6.967258583,0.501627684,-0.288431227,-0.120624036,0.591077883
6.977192583,0.148047,-0.056174558,-0.19008486,0.247397957
6.987126583,-0.047940735,-0.143372267,-0.202527985,0.252728126
6.997060583,-0.187924996,-0.550959229,-0.200387344,0.615651658
7.006994583,-0.39440465,-1.19607091,-0.084566392,1.262256758
7.016928583,-0.645366549,-1.590168238,0.076527424,1.717844421
7.026862583,-0.776424468,-1.453620791,0.161398634,1.655867712
7.036796583,-0.7829175,-1.060141087,0.211994976,1.334841116
7.046730583,-0.511308193,-0.726163805,0.320387423,0.944138782
7.056664583,-0.145594925,-0.565183163,0.370799452,0.691463754
7.066598583,0.194690287,-0.473607004,0.268601209,0.578233959
7.076532583,0.608437657,-0.315073013,0.131933108,0.697763378
7.086466583,0.787313521,-0.074205838,0.181684777,0.811405229
7.096400583,0.872623622,0.644309938,0.476651698,1.184822402
7.106334583,0.799542904,1.512516856,0.540635705,1.794230493
7.116268583,0.699135303,1.716380715,0.313177526,1.879583224
7.126202583,0.71140784,1.616008639,0.176651299,1.774483226
7.136136583,0.898703694,1.507390499,0.181806639,1.764354868
7.146070583,1.312980413,1.499315143,0.215603784,2.004581865
7.156005583,1.857615232,1.733185768,0.297674954,2.557983119
7.165939583,2.343823195,2.014848471,0.40299347,3.116973735
7.175873583,2.67445302,2.194464207,0.538042367,3.50112292
7.185807583,2.780332327,2.195732832,0.709371448,3.613128612
7.195741583,2.624382257,2.112914801,0.801009536,3.463149934
7.205675583,2.212781191,2.023019314,0.787204504,3.099790102
7.215609583,1.580481529,2.005118847,0.728417337,2.654998168
7.225543583,1.081227183,1.810172558,0.614550352,2.196235198
7.235477583,1.036826491,1.310120702,0.378025144,1.71298816
7.245411583,1.385772824,0.751217604,0.050135691,1.577088392
7.255345583,1.834718466,0.430468649,-0.290568382,1.906810187
7.265279458,2.0511446,0.439244568,-0.592242777,2.179651685
7.275213458,2.053211451,0.743614852,-0.732252061,2.303222393
7.285147458,1.959321976,1.154307842,-0.726709843,2.387357618
7.295081458,1.880085468,1.425922036,-0.634539425,2.443484255
7.305015458,1.80928278,1.460335851,-0.526198149,2.383897956
7.314949458,1.729770303,1.366644025,-0.390350252,2.238793092
7.324883458,1.668203115,1.217305899,-0.215077266,2.076293215
7.334817458,1.630330563,1.118617654,-0.044127088,1.977683089
7.344751458,1.631820321,1.101361036,0.090559542,1.970795454
7.354685458,1.675359488,1.102466226,0.208402291,2.016356294
7.364620458,1.703576326,1.08941555,0.328822047,2.04868799
7.374554458,1.652926445,1.003345013,0.431126595,1.981094947
7.384488458,1.524793863,0.814698696,0.503033519,1.800492436
7.394422458,1.347219586,0.620096505,0.572888494,1.589880975
7.404356458,1.185545802,0.469713926,0.649477065,1.431073191
7.414290458,1.07561934,0.352282107,0.720729113,1.341830876
7.424224458,1.042407751,0.238413289,0.74883455,1.305453178
7.434158458,1.059513688,0.19807066,0.733460128,1.30375036
7.444092458,1.085759521,0.12343315,0.708199561,1.302173605
7.454026458,1.154912949,0.023727324,0.679967105,1.340426115
7.463960458,1.215504766,0.01822716,0.638675034,1.373204232
7.473894458,1.239065766,0.148812324,0.599337459,1.384425682
7.483828458,1.163693905,0.343882442,0.545113921,1.330258556
7.493762458,0.951753199,0.550985277,0.466068119,1.194419699
7.503696458,0.660982788,0.775350153,0.39255932,1.091864884
7.513630458,0.397215098,0.946115494,0.332117558,1.07852512
7.523564458,0.217449293,0.969722688,0.30846113,1.040574147
7.533498458,0.106728092,0.846259356,0.332650095,0.915533652
7.543432458,0.03751472,0.630761266,0.36192283,0.728186284
7.553366458,-0.015580988,0.404313773,0.347375333,0.533274804
7.563301458,-0.044750925,0.264342278,0.26179412,0.374720758
7.573235458,-0.07230372,0.225886509,0.138051391,0.274428004
7.583169458,-0.192495257,0.266664267,-0.008625628,0.328996438
7.593103458,-0.426591665,0.342591256,-0.152943924,0.568103037
7.603037458,-0.679118574,0.320755124,-0.24690713,0.790600416
7.612971458,-0.925251126,0.131125823,-0.338186443,0.993807677
7.622905458,-1.119902611,-0.06561964,-0.528658748,1.240148324
7.632839458,-1.338736176,-0.206608981,-0.735114753,1.541199378
7.642773458,-1.715290546,-0.407674283,-0.829887211,1.948623299
7.652707458,-2.307807922,-0.795804203,-0.765656829,2.558419847
7.662641458,-2.922252893,-1.372313023,-0.562735021,3.27711393
7.672575458,-3.335926533,-1.767092586,-0.413469404,3.797628074
7.682509458,-3.529323101,-1.816212654,-0.43462351,3.992949731
7.692443458,-3.530030251,-1.684205651,-0.499662191,3.94300958
7.702377458,-3.401271582,-1.411010027,-0.48343724,3.713934468
7.712311458,-3.268851519,-1.002126694,-0.433698177,3.446410055
7.722245458,-3.212112427,-0.569725871,-0.409432292,3.287839505
7.732179458,-3.158802509,-0.039376259,-0.333292246,3.176581103
7.742113458,-3.053436756,0.509216607,-0.244088411,3.105214442
7.752047458,-2.857488155,0.89585036,-0.21004203,3.001983358
7.761982458,-2.586451054,0.967344165,-0.248725399,2.772606736
7.771916458,-2.172767878,0.630914748,-0.398333251,2.297312136
7.781850458,-1.76187706,0.083357424,-0.596016288,1.861825623
7.791784458,-1.288878083,-0.578541696,-0.780195177,1.613884048
7.801718458,-0.907985687,-1.090900779,-1.029472232,1.753372634
7.811652458,-0.909853101,-0.992549241,-1.289157033,1.864111723
7.821586458,-1.209759831,-0.536811531,-1.436752796,1.953444155
7.831520458,-1.554821134,-0.130354613,-1.463710904,2.139371565
7.841454458,-1.776861668,-0.424514353,-1.382269502,2.290877299
7.851388458,-2.006410837,-1.002813935,-1.19897747,2.543396786
7.861322458,-2.189945221,-1.641705036,-0.982010365,2.907817025
7.871256458,-2.273804188,-2.321826935,-0.791040719,3.344669075
7.881190458,-2.225399733,-2.672846556,-0.651685357,3.538531685
7.891124458,-2.126060009,-2.817792654,-0.496797234,3.56467307
7.901058458,-2.012752295,-2.990742683,-0.385016352,3.625458756
7.910992458,-1.885019422,-3.040106773,-0.332878828,3.592541681
7.920926458,-1.65870142,-2.84295845,-0.349369884,3.309949013
7.930860458,-1.315509796,-2.558541775,-0.406413198,2.905490273
7.940794458,-0.878512025,-2.265999079,-0.428739727,2.467864047
7.950728458,-0.391682237,-1.970090985,-0.427834004,2.05370772
7.960662458,0.073946804,-1.647944331,-0.458440632,1.712120458
7.970597458,0.49619472,-1.317098975,-0.48426798,1.488446972
7.980531458,0.86237812,-0.927546144,-0.458882242,1.347074899
7.990465458,1.182014465,-0.525099099,-0.435010999,1.364595848
8.000399458,1.463567734,-0.148814261,-0.401554704,1.524933564
8.010333458,1.70532763,0.112477265,-0.360992104,1.746742328
8.020267458,1.871192932,0.252777934,-0.299277872,1.911760162
8.030201458,1.829295635,0.241432086,-0.191795379,1.855100386
8.040135458,1.368421435,0.10983631,-0.053366464,1.373859243
8.050069458,0.766436517,0.128405198,-0.007249837,0.777152102
8.060003458,0.404483944,0.184318885,-0.065195277,0.449256204
8.069937458,0.058883414,0.121032856,-0.028130203,0.137504607
8.079871458,-0.20952414,-0.006181269,0.014814829,0.210138175
8.089805458,-0.278524488,-0.227969065,-0.105523035,0.375074521
8.099739458,-0.165440798,-0.542131603,-0.306581944,0.644414324
8.109673458,-0.013085087,-0.79273802,-0.419177741,0.896835975
8.119607458,0.026146349,-0.941689372,-0.362517685,1.00939664
8.129541458,-0.007739448,-0.969540417,-0.179603532,0.986065895
8.139475458,-0.032405913,-0.863441944,-0.043793239,0.865158934
8.149409458,-0.009471301,-0.743536055,0.101881407,0.750543398
8.159343458,0.141850278,-0.66269654,0.317225307,0.748278091
8.169277458,0.369345218,-0.573836446,0.423767447,0.803295093
8.179212458,0.574276149,-0.4619582,0.33035481,0.807671204
8.189146458,0.87894547,-0.300008714,0.15343304,0.941324633
8.199080458,0.88676995,-0.021832619,0.230994835,0.916622181
8.209014458,0.58048749,0.367267728,0.432896286,0.811942427
8.218948458,0.416456878,0.846276462,0.429336876,1.03631575
8.228882458,0.488030136,1.154165506,0.228873566,1.273834581
8.238816458,0.635585845,1.109020829,0.072691754,1.280304908
8.248750458,0.849029362,1.092139363,-0.022570053,1.383520384
8.258684458,1.229216576,1.398186803,-0.057002213,1.862565161
8.268618833,1.721832871,1.955714464,-0.01328616,2.605706051
8.278552833,2.172130823,2.456243277,0.099541895,3.280425572
8.288486833,2.488313198,2.722665071,0.335251898,3.703647054
8.298420833,2.60020113,2.69327116,0.638881981,3.79775271
8.308354833,2.488521576,2.450669527,0.882326603,3.602363252
8.318288833,2.184926271,2.200160027,1.041185021,3.270882634
8.328222833,1.729193687,1.927066088,1.083968163,2.80689891
8.338156833,1.203122854,1.683087587,1.052727342,2.321319298
8.348090833,0.951303899,1.274965405,0.848783255,1.803038798
8.358024833,1.11369884,0.725126505,0.434552491,1.398202211
8.367958833,1.538016319,0.301882565,-0.026835106,1.567592869
8.377892833,1.982486844,0.150112137,-0.372376174,2.022733733
8.387826833,2.155120134,0.368777364,-0.49822998,2.242492509
8.397760833,2.07100153,0.920958877,-0.490656316,2.319042089
8.407695833,1.949579,1.304244995,-0.437445819,2.386057864
8.417629833,1.887193918,1.375265718,-0.370207131,2.36429905
8.427563833,1.843108535,1.285601616,-0.287219822,2.265461501
8.437497833,1.762721777,1.158727765,-0.17823185,2.116980087
8.447431833,1.654446721,0.991178155,-0.013809623,1.928683176
8.457365833,1.570291281,0.887832284,0.159847766,1.810969955
8.467299833,1.537352562,0.883789837,0.284609139,1.795978769
8.477233833,1.545731664,0.983850777,0.388271809,1.872966557
8.487167833,1.531052351,1.067549109,0.481536776,1.927604749
8.497101833,1.484832168,1.039543748,0.540383697,1.891399564
8.507035833,1.398937225,0.826521993,0.588581324,1.728175899
8.516969833,1.277102232,0.530589163,0.631972969,1.520494921
8.526903833,1.157809377,0.269345284,0.686030924,1.372482373
8.536837833,1.083421707,0.137023658,0.736298442,1.317085219
8.546771833,1.09011662,0.105338685,0.761106312,1.333691607
8.556705833,1.153338552,0.113767222,0.748114944,1.379423345
8.566639833,1.231775284,0.124256887,0.699609995,1.422028224
8.576573833,1.312591672,0.162808597,0.638176441,1.468561441
8.586507833,1.36281085,0.243563369,0.57906121,1.500629339
8.596441833,1.275734901,0.380848885,0.519632161,1.429182631
8.606375833,1.034995794,0.59594202,0.471844643,1.284134165
8.616309833,0.716145515,0.832526624,0.455119699,1.188738373
8.626244833,0.380996287,0.996189058,0.478693992,1.169058915
8.636178833,0.094209269,0.956846178,0.544187486,1.104794105
8.646112833,-0.078560911,0.670079648,0.585717916,0.893445035
8.656046833,-0.113389425,0.278605223,0.534655929,0.613461485
8.665980833,-0.047530781,-0.022709887,0.36617288,0.369942553
8.675914833,0.055194847,-0.067557625,0.118368499,0.14704287
8.685848833,0.102051303,0.125719696,-0.122701108,0.203163659
8.695782833,-0.013248748,0.360455185,-0.29712078,0.467315983
8.705716833,-0.290747732,0.441361994,-0.444396257,0.690523487
8.715650833,-0.631261766,0.247581676,-0.490449518,0.836856519
8.725584833,-0.937145829,-0.116821066,-0.466232598,1.053215221
8.735518833,-1.2313627,-0.466671735,-0.495756447,1.407057591
8.745452833,-1.593634605,-0.744798481,-0.569599211,1.849010356
8.755386833,-2.06876421,-1.079138994,-0.579543352,2.404203989
8.765320833,-2.585532188,-1.523828506,-0.514947295,3.045028856
8.775254833,-3.037893295,-1.944257379,-0.44403705,3.634019996
8.785188833,-3.358805656,-2.206245661,-0.461828828,4.045044032
8.795122833,-3.671458721,-2.238261223,-0.568356454,4.337332302
8.805056833,-3.772115946,-2.129783154,-0.637546957,4.378504438
8.814990833,-3.572288036,-1.742259622,-0.630455613,4.024199881
8.824924833,-3.27865243,-1.012732387,-0.551316082,3.47550544
8.834858833,-3.018395185,-0.169791937,-0.431494027,3.05380515
8.844793833,-2.888821602,0.576739788,-0.276315093,2.958761407
8.854727833,-2.857216358,1.065211773,-0.045393113,3.049659321
8.864661833,-2.860150814,1.182841182,0.192659393,3.101079422
8.874595833,-2.849282742,1.039979458,0.353582889,3.053684704
8.884529833,-2.65352273,0.572846353,0.310750186,2.73238019
8.894463833,-2.150847673,-0.229099929,-0.002173278,2.163015769
8.904397833,-1.596324444,-0.961301982,-0.350562155,1.896113672
8.914331833,-1.352379918,-1.161034226,-0.66607517,1.902784289
8.924265833,-1.512819886,-0.574581146,-0.907294691,1.855249621
8.934199833,-1.814473152,0.105455071,-1.146942258,2.149164985
8.944133833,-2.038202524,0.379140407,-1.284204841,2.438687977
8.954067833,-2.196730852,0.159361467,-1.299949408,2.557516564
8.964001833,-2.326622486,-0.516333342,-1.258977532,2.695328689
8.973935833,-2.415367603,-1.239186406,-1.142205238,2.945202271
8.983869833,-2.381503582,-1.698103547,-0.916931629,3.06526974
8.993803833,-2.252101421,-1.911853552,-0.764754236,3.051555973
9.003737833,-2.069158316,-2.227296114,-0.641528487,3.107060172
9.013671833,-1.87799263,-2.547302961,-0.570592463,3.215771207
9.023605833,-1.679550409,-2.670756817,-0.531364918,3.199403105
9.033539833,-1.441133022,-2.61180377,-0.508723557,3.026083769
9.043473833,-1.124902606,-2.412678003,-0.490027905,2.706759754
9.053407833,-0.754005909,-2.15157938,-0.536497414,2.34214607
9.063341833,-0.319758296,-1.852543354,-0.602985322,1.974272916
9.073276833,0.14007169,-1.481016636,-0.640014708,1.619459534
9.083210833,0.567225456,-1.043816686,-0.641489565,1.350113645
9.093144833,0.961255968,-0.575402796,-0.611892998,1.276524365
9.103078833,1.370619893,-0.124610335,-0.560057759,1.48586383
9.113012833,1.7938869,0.262761295,-0.496393025,1.879755235
9.122946833,2.181627274,0.527077854,-0.410161734,2.281565531
9.132880833,2.488698721,0.567485869,-0.306903899,2.570963154
9.142814833,2.502534628,0.380222976,-0.214341462,2.540313236
9.152748833,1.932661414,0.149392009,-0.039684206,1.938832884
9.162682833,1.375618577,0.077644579,0.216743588,1.394751925
9.172616833,0.764463663,0.113203533,0.436133027,0.887373512
9.182550833,0.074332081,-0.018901236,0.415994465,0.423005804
9.192484833,-0.42598778,-0.318314552,0.253335178,0.589040283
9.202418833,-0.597121179,-0.722794652,0.041353155,0.938453992
9.212352833,-0.54849869,-1.004425406,-0.091271579,1.148064332
9.222286833,-0.461910546,-1.024132252,-0.137907788,1.131912885
9.232220833,-0.452712685,-0.876401603,-0.119357578,0.993617017
9.242154833,-0.52002573,-0.638869226,-0.105283037,0.830460815
9.252088833,-0.633310616,-0.438907027,-0.116234303,0.779251004
9.262022833,-0.567089796,-0.264409006,0.034549087,0.626655087
9.271956958,0.03501917,-0.179161981,0.41038397,0.449155163
9.281890958,0.507356584,-0.315427661,0.702650726,0.922292446
9.291824958,0.783742905,-0.450184703,0.661196768,1.11986623
9.301759958,0.94084686,-0.331021994,0.361246675,1.060786282
9.311693958,0.769044518,-0.146233514,0.121147014,0.79214286
9.321627958,0.655116856,0.562565744,0.149462819,0.876354635
9.331561958,0.671487033,1.061326385,0.024546785,1.256149304
9.341495958,0.643933654,0.995710194,-0.200629339,1.202639378
9.351429958,0.641376674,0.916873813,-0.250552297,1.146646449
9.361363958,0.901147783,1.032905579,-0.176566243,1.382077024
9.371297958,1.33600533,1.422929406,-0.027845848,1.952028106
9.381231958,1.806487918,1.97792089,0.130469501,2.681900806
9.391165958,2.163939714,2.456862926,0.275251329,3.285509675
9.401099958,2.393017292,2.575422049,0.464778125,3.546173881
9.411033958,2.542080879,2.257549763,0.683946788,3.467922914
9.420967958,2.500536919,1.844331264,0.85691911,3.223127837
9.430901958,2.166363001,1.633595586,0.936813951,2.870432645
9.440835958,1.604600072,1.554217696,0.886337996,2.403316267
9.450769958,1.104544282,1.360243559,0.720850646,1.894704796
9.460703958,1.082681537,0.841424346,0.398342103,1.427890287
9.470637958,1.483415484,0.31031692,-0.001988989,1.515526986
9.480571958,1.91452527,0.176320255,-0.396936029,1.963174484
9.490505958,2.102820396,0.487682879,-0.615686774,2.244717892
9.500439958,2.082953453,1.08971858,-0.654821396,2.440281281
9.510373958,1.986710072,1.553661704,-0.608510196,2.594449124
9.520307958,1.894220591,1.624310851,-0.54438132,2.553978937
9.530241958,1.804138422,1.552907467,-0.472846836,2.426936583
9.540175958,1.744140625,1.409231186,-0.359690994,2.270977029
9.550110958,1.746190548,1.146774411,-0.16562593,2.095639503
9.560044958,1.756855249,1.01356256,0.042843387,2.028715107
9.569978958,1.772604227,1.052464843,0.205698386,2.071743183
9.579912958,1.785659075,1.205507874,0.315115958,2.177412601
9.589846958,1.764578342,1.382912636,0.408197403,2.278773619
9.599780958,1.689041853,1.480809927,0.497303575,2.300645837
9.609714958,1.549479127,1.49964416,0.561001182,2.228124884
9.619648958,1.399650455,1.363577604,0.610887766,2.047327316
9.629582958,1.280863762,0.996298611,0.66523695,1.753785363
9.639516958,1.24161303,0.463000029,0.725032628,1.510511256
9.649450958,1.251569033,0.077914812,0.757849038,1.465206786
9.659384958,1.269461036,-0.096921712,0.762079954,1.483809623
9.669318958,1.25337553,-0.068444908,0.74508822,1.459723049
9.679252958,1.198152184,0.045174863,0.710613072,1.393764816
9.689186958,1.147188425,0.135864988,0.659978271,1.330440489
9.699120958,1.089429498,0.212377608,0.594014704,1.258894097
9.709054958,0.975876033,0.3520208,0.502546549,1.152738353
9.718988958,0.796989918,0.572432816,0.392270625,1.056763219
9.728922958,0.540179372,0.877249241,0.315553218,1.077466388
9.738856958,0.227829993,1.136818647,0.318036884,1.202252304
9.748790958,-0.05838291,1.155078888,0.381204098,1.217757105
9.758724958,-0.205204576,0.887770534,0.416374862,1.001805103
9.768658958,-0.203409687,0.542671978,0.394351631,0.700986153
9.778592958,-0.119452737,0.263400376,0.292558938,0.411387222
9.788526958,-0.002821202,0.22147423,0.114958368,0.249548032
9.798460958,0.051707022,0.389019042,-0.055802718,0.396387909
9.808395958,-0.066691779,0.587944448,-0.189301997,0.62125817
9.818329958,-0.358900726,0.654627323,-0.289883465,0.800861465
9.828263958,-0.688821435,0.498645037,-0.338679552,0.915328182
9.838197958,-0.930849791,0.093489558,-0.35765937,1.001569695
9.848131958,-1.062259316,-0.478325188,-0.422514081,1.239236858
9.858065958,-1.221696377,-0.80596298,-0.563045859,1.568164214
9.867999958,-1.515055895,-1.069561839,-0.676019609,1.973919807
9.877933958,-1.970247388,-1.381088138,-0.605420291,2.481091079
9.887867958,-2.506158113,-1.758031011,-0.423343509,3.090424122
9.897801958,-3.004374266,-2.053261757,-0.265904605,3.648678368
9.907735958,-3.369463921,-2.172285318,-0.192207888,4.013608662
9.917669958,-3.566440582,-2.214185476,-0.255093396,4.205613914
9.927603958,-3.587311029,-2.118233919,-0.323648125,4.178571941
9.937537958,-3.487293005,-1.775316954,-0.293296605,3.924154137
9.947471958,-3.366379738,-1.223993063,-0.195503771,3.587323972
9.957405958,-3.245262623,-0.544897318,-0.121951535,3.292949249
9.967339958,-3.107369423,0.254712105,-0.044938926,3.118115215
9.977273958,-2.998930216,0.943955302,0.014020798,3.14401505
9.987207958,-2.914666653,1.308518291,0.007990296,3.194928115
9.997141958,-2.849453449,1.299753547,-0.058049709,3.13242941
10.00707596,-2.662585258,0.857568622,-0.169268027,2.802398234
10.01700996,-2.172901392,0.032035306,-0.358840913,2.202565214
10.02694396,-1.544740081,-1.00808239,-0.503914475,1.912166787
10.03687796,-1.128109336,-1.673012257,-0.572088242,2.097352055
10.04681196,-1.22227788,-1.512572408,-0.768251419,2.090944463
10.05674596,-1.614822149,-0.74922204,-1.028108835,2.055721775
10.06667996,-1.976831794,-0.232189596,-1.204575419,2.326537747
10.07661396,-2.118071556,-0.271213949,-1.263402343,2.48112265
10.08654896,-2.120245695,-0.717225492,-1.203619957,2.541368768
10.09648296,-2.079604626,-1.374900579,-1.071962833,2.713708039
10.10641696,-2.033214569,-1.916433334,-0.955221295,2.95281661
10.11635096,-1.956871629,-2.204888105,-0.888918698,3.079132115
10.12628496,-1.845294595,-2.381272316,-0.85895431,3.132630283
10.13621896,-1.756639838,-2.497725725,-0.82906276,3.164136909
10.14615296,-1.652535796,-2.495515823,-0.779812217,3.092988987
10.15608696,-1.482814074,-2.318500042,-0.722979248,2.84550154
10.16602096,-1.202305555,-2.088119745,-0.674781084,2.502221459
10.17595496,-0.782361567,-1.893469691,-0.674701989,2.156974702
10.18588896,-0.2915622,-1.684671998,-0.704147041,1.849040646
10.19582296,0.170912743,-1.443785071,-0.738794267,1.630810678
10.20575696,0.578639388,-1.156549692,-0.750016153,1.494976576
10.21569096,0.939147294,-0.84244734,-0.732677341,1.458948678
10.22562496,1.298071384,-0.494634718,-0.709962845,1.560032071
10.23555896,1.686287522,-0.16958952,-0.667298496,1.821431716
10.24549296,2.109834433,0.091354951,-0.619948506,2.200927807
10.25542696,2.529004574,0.234902516,-0.584891438,2.606365539
10.26536096,2.820858717,0.201502174,-0.532124877,2.87767335
10.27529488,2.759077787,0.022268778,-0.38296333,2.785617893
10.28522888,2.219898939,-0.109039471,-0.149745807,2.22761413
10.29516287,1.295378685,0.088829406,0.096801125,1.302024216
10.30509688,0.06323871,0.209297493,0.24817501,0.330749771
10.31503088,-0.678019166,0.007964638,0.128513053,0.690136964
10.32496488,-0.834200084,-0.356628567,-0.085040733,0.911211085
10.33489887,-0.771886885,-0.611763418,-0.279857606,1.023906305
10.34483287,-0.622997582,-0.714480162,-0.344720572,1.008682389
10.35476788,-0.45744136,-0.710609257,-0.306912482,0.899118115
10.36470188,-0.352595419,-0.471504182,-0.25292331,0.640788517
10.37463587,-0.286802292,-0.176505283,-0.185116842,0.384288843
10.38456987,-0.084833309,-0.131185263,-0.043987647,0.162299651
10.39450388,0.461751491,-0.224254221,0.306907803,0.598077582
10.40443788,1.175096631,-0.417206764,0.500371158,1.343608899
10.41437187,1.789263725,-0.471021533,0.330691576,1.879543264
10.42430587,1.806804299,0.009970828,-0.130267486,1.811521684
10.43423988,0.906132817,1.016067863,-0.351294965,1.406015198
10.44417388,-0.152463451,1.148182034,0.232345253,1.181334586
10.45410788,-0.32674256,0.657180846,0.855864286,1.127453343
10.46404187,0.18025662,0.503605306,0.720462084,0.897316203
10.47397588,0.664948761,0.632004559,0.338965595,0.97800015
10.48390988,0.841451585,0.772814035,0.02872818,1.142850652
10.49384388,0.932510912,0.827230394,-0.149673507,1.255503439
10.50377787,1.213853002,1.201011062,-0.116169497,1.711537914
10.51371187,1.743819952,1.875680327,0.124597035,2.564100064
10.52364588,2.228867531,2.368092299,0.439111114,3.281543871
10.53357988,2.493601561,2.60960722,0.760656178,3.68872558
10.54351387,2.526506424,2.628997326,0.966163695,3.772046386
10.55344787,2.337071419,2.48613286,1.015802026,3.560142296
10.56338188,1.976924539,2.372567415,0.925956666,3.224081655
10.57331588,1.483062267,2.312652349,0.782274067,2.85653414
10.58324987,1.034288764,1.937523007,0.720554113,2.311481534
10.59318387,1.002824306,1.258384943,0.592571914,1.714739259
10.60311788,1.320427775,0.588733613,0.300464213,1.476623012
10.61305188,1.714641452,0.220929742,-0.08750803,1.731029438
10.62298588,1.887794614,0.350621402,-0.386015594,1.95849736
10.63291987,1.845864415,0.833518565,-0.530549049,2.093669251
10.64285388,1.738146544,1.293593287,-0.575885177,2.241914525
10.65278788,1.637708306,1.542748213,-0.584266663,2.324549005
10.66272288,1.631814718,1.592752576,-0.521349013,2.339120526
10.67265687,1.723138809,1.540232658,-0.413000673,2.347784818
10.68259087,1.838461161,1.434875131,-0.272676229,2.348011586
10.69252488,1.883657932,1.279313803,-0.08566159,2.278628737
10.70245888,1.876955509,1.245773196,0.084729739,2.254349567
10.71239287,1.818732977,1.314472079,0.243505269,2.257193236
10.72232687,1.683314681,1.397020936,0.377436012,2.219836425
10.73226088,1.495015144,1.422564983,0.509541869,2.125651507
10.74219488,1.29262352,1.33068049,0.635892749,1.961108288
10.75212887,1.113902569,1.057235599,0.73206538,1.701307075
10.76206287,1.008423805,0.72633487,0.800211668,1.478113537
10.77199688,1.012018561,0.410170227,0.851195514,1.384541436
10.78193088,1.112698078,0.123571396,0.856916368,1.409848419
10.79186488,1.247702003,-0.023031894,0.828379035,1.497832628
10.80179887,1.340371251,-0.038822182,0.785723567,1.554176237
10.81173288,1.371441841,0.051112235,0.730729282,1.55480882
10.82166688,1.335407019,0.191913292,0.669971108,1.506321315
10.83160088,1.215764761,0.334704012,0.590397716,1.392364964
10.84153487,1.005657792,0.487489074,0.489096045,1.219921364
10.85146887,0.712113798,0.67340064,0.387979299,1.054088431
10.86140288,0.376463473,0.88476944,0.34050867,1.020043069
10.87133688,0.089013048,0.985994041,0.352716863,1.050959922
10.88127087,-0.087452531,0.858401179,0.396187395,0.949455097
10.89120487,-0.145706266,0.565574944,0.422603011,0.720901268
10.90113888,-0.137635231,0.27747032,0.371949285,0.484024283
10.91107288,-0.095001221,0.089268714,0.236586913,0.270124976
10.92100687,-0.027308237,0.120386258,0.063326605,0.138740224
10.93094087,-0.040593948,0.322848529,-0.110673688,0.343697114
10.94087488,-0.234067351,0.543726921,-0.256588817,0.645185485
10.95080888,-0.526211619,0.646634936,-0.347159982,0.903081094
10.96074288,-0.781945586,0.466087729,-0.329055011,0.967963776
10.97067687,-0.957064688,0.012117039,-0.359072834,1.022278309
10.98061088,-1.105760694,-0.418953747,-0.496492893,1.282471889
10.99054588,-1.396844745,-0.692453504,-0.681796432,1.701620836
11.00047988,-1.871634603,-0.974810362,-0.732850313,2.233907095
11.01041387,-2.425436735,-1.330092549,-0.621837258,2.835237401
11.02034787,-2.943066835,-1.675986528,-0.477290034,3.420289318
11.03028188,-3.301475286,-1.928176403,-0.42056495,3.846359082
11.04021588,-3.498844385,-2.091686964,-0.496392071,4.106515734
11.05014987,-3.561108351,-1.989647508,-0.560956717,4.117628241
11.06008387,-3.454325199,-1.638396263,-0.541745186,3.861371873
11.07001788,-3.411752939,-0.90859288,-0.404279739,3.553736238
11.07995188,-3.278879404,-0.249271706,-0.349012733,3.306810611
11.08988588,-3.075906992,0.349821836,-0.282995075,3.108643652
11.09981987,-2.87898612,0.985900044,-0.146857247,3.046658338
11.10975388,-2.722430706,1.382993102,-0.013065906,3.053599448
11.11968788,-2.554837465,1.224102497,0.030729508,2.833119429
11.12962188,-2.264989614,0.406775922,-0.131100401,2.304958117
11.13955587,-1.925280452,-0.649334431,-0.29116565,2.05258799
11.14948987,-1.560530424,-1.618664861,-0.368590683,2.278418361
11.15942388,-1.394927263,-2.098669291,-0.388173431,2.549688897
11.16935788,-1.556902051,-1.710769176,-0.488721609,2.364217414
11.17929187,-1.815465927,-0.657645941,-0.683043897,2.048161049
11.18922587,-2.051005602,0.361121267,-0.854199648,2.250930827
11.19915988,-2.048822641,0.594113886,-1.009830475,2.360170145
11.20909388,-1.984765172,0.141583681,-1.124137044,2.285393362
11.21902787,-2.026058674,-0.645073533,-1.112749934,2.399842918
11.22896187,-2.10029912,-1.418116212,-0.978156447,2.716449893
11.23889588,-2.079359531,-1.797134876,-0.850328743,2.876888735
11.24882988,-1.959531903,-1.992603421,-0.814526558,2.91095984
11.25876387,-1.838455319,-2.274102211,-0.783468366,3.027421594
11.26869783,-1.701288939,-2.474549532,-0.754627645,3.096327231
11.27863183,-1.494576097,-2.468435764,-0.713560522,2.972558065
11.28856583,-1.212139249,-2.309679747,-0.649108827,2.687981466
11.29849983,-0.858113706,-2.088810205,-0.588936567,2.333738093
11.30843383,-0.445574641,-1.832314491,-0.591174424,1.976208581
11.31836783,-0.01541492,-1.565891504,-0.585015595,1.671674929
11.32830283,0.387741059,-1.277964711,-0.545068979,1.442441376
11.33823683,0.759752691,-0.953405619,-0.504666626,1.319429736
11.34817083,1.127636671,-0.594016552,-0.476968408,1.360852302
11.35810483,1.526447058,-0.217961594,-0.46199429,1.609654187
11.36803883,1.968040943,0.125023186,-0.462607861,2.025542392
11.37797283,2.397177219,0.364202142,-0.458319545,2.467622059
11.38790683,2.681510448,0.476222664,-0.391158879,2.751416286
11.39784083,2.573936224,0.36476177,-0.196295798,2.60705406
11.40777483,2.001095772,0.263826102,0.093114965,2.020559055
11.41770883,1.023635387,0.204010904,0.352477908,1.101676237
11.42764283,-0.115717113,-0.002471165,0.421150982,0.436766192
11.43757683,-0.803248942,-0.453775674,0.253751546,0.956823428
11.44751083,-0.889272749,-1.011692166,-0.055224698,1.348101194
11.45744483,-0.756594241,-1.349861264,-0.262614906,1.569562635
11.46737883,-0.606565893,-1.38520515,-0.298703939,1.541408295
11.47731283,-0.501825929,-1.2127949,-0.27485314,1.34098657
11.48724683,-0.488253653,-0.917687416,-0.197266221,1.058043376
11.49718083,-0.464855015,-0.593989372,-0.007050666,0.754296541
11.50711483,-0.134673372,-0.457839251,0.299838156,0.563610341
11.51704883,0.292914301,-0.643407524,0.471264601,0.849624831
11.52698283,0.65687573,-0.453315377,0.276731342,0.844725275
11.53691683,1.015231967,0.157377005,-0.000186863,1.027357534
11.54685083,0.687299967,0.685053885,0.205716237,0.991967358
11.55678483,-0.040862415,1.025935769,0.441573292,1.117676568
11.56671883,-0.176128104,1.054114938,0.397561103,1.140278142
11.57665283,0.129425913,0.707737327,0.214092717,0.750652304
11.58658683,0.592787445,0.420050919,0.008649278,0.726577277
11.59652083,1.197202682,0.515622735,-0.089906856,1.306615594
11.60645483,1.73414278,1.169363856,-0.066514976,2.092626879
11.61638883,2.190927505,1.978915453,0.036063291,2.952553177
11.62632283,2.501951218,2.484511137,0.269515455,3.536268381
11.63625683,2.67950201,2.68234849,0.587779045,3.83669241
11.64619183,2.672273159,2.739621878,0.937520027,3.940243098
11.65612583,2.433724403,2.654476166,1.214862466,3.800677439
11.66605983,2.02135396,2.487605333,1.306967854,3.461533923
11.67599383,1.540154696,2.157841206,1.206853628,2.912876728
11.68592783,1.124460816,1.509090185,0.990698397,2.126793039
11.69586183,1.098616004,0.528562427,0.614477217,1.365253681
11.70579583,1.496629477,-0.458997577,0.170722947,1.574714225
11.71572983,2.034231901,-0.919191182,-0.249147996,2.246127018
11.72566383,2.279191494,-0.777877212,-0.568989396,2.474581935
11.73559783,2.271947384,-0.184121326,-0.749573886,2.399480483
11.74553183,2.107534647,0.626034379,-0.771564126,2.330006981
11.75546583,1.955194354,1.261786938,-0.656131327,2.417726113
11.76539983,1.870818496,1.513182402,-0.563848555,2.471357525
11.77533383,1.796901464,1.537227273,-0.481579185,2.413263573
11.78526783,1.687673211,1.516699672,-0.328214139,2.292671647
11.79520183,1.569372177,1.523602605,-0.148964316,2.192369562
11.80513583,1.490462184,1.603853703,0.044991843,2.189942576
11.81506983,1.462709069,1.662418485,0.223555535,2.225562876
11.82500383,1.43720448,1.582427502,0.386985749,2.172416048
11.83493783,1.367772698,1.282639503,0.534264922,1.949719277
11.84487183,1.294629931,0.877701402,0.656674027,1.696362929
11.85480583,1.272348285,0.446597606,0.736816347,1.536625494
11.86473983,1.278218985,0.13781634,0.781947315,1.504752046
11.87467383,1.249090433,0.047899332,0.838976741,1.505457813
11.88460783,1.196032763,0.116234712,0.886369526,1.493203206
11.89454183,1.146035075,0.216824263,0.898114026,1.472079467
11.90447583,1.118932843,0.227612987,0.856658697,1.427474169
11.91440983,1.163896799,0.188184649,0.771438837,1.408966678
11.92434383,1.267121196,0.207162857,0.678180575,1.452047336
11.93427783,1.308066249,0.312375426,0.590809405,1.468901451
11.94421183,1.241968393,0.479639769,0.49703759,1.421121446
11.95414583,1.065013289,0.697994113,0.41440478,1.339096864
11.96407983,0.750284374,0.938872278,0.36232692,1.255264352
11.97401383,0.349694818,1.15066874,0.374883205,1.259707281
11.98394783,-0.00189623,1.204113007,0.45163098,1.286025766
11.99388283,-0.179436356,1.002430916,0.515102208,1.141225408
12.00381683,-0.206858128,0.639162183,0.49006477,0.831554003
12.01375083,-0.155580208,0.324935317,0.347770661,0.500732058
12.02368483,-0.038899932,0.265206218,0.107580692,0.288827194
12.03361883,0.002495636,0.413440734,-0.138023973,0.435878522
12.04355283,-0.153315529,0.578522325,-0.320932806,0.679110887
12.05348683,-0.454402834,0.550135016,-0.400096804,0.818051297
12.06342083,-0.743849277,0.225580931,-0.450750113,0.89854002
12.07335483,-0.984253228,-0.187629774,-0.513115227,1.125720474
12.08328883,-1.230133533,-0.475617349,-0.665588915,1.477311402
12.09322283,-1.538449764,-0.684238493,-0.778205454,1.85488914
12.10315683,-1.978716373,-1.014951944,-0.803510249,2.364545338
12.11309083,-2.453325272,-1.438773274,-0.716704249,2.933008422
12.12302483,-2.898771763,-1.778921843,-0.646342456,3.461964648
12.13295883,-3.248090744,-1.931579947,-0.59970212,3.826321629
12.14289283,-3.4390378,-2.02425909,-0.609552622,4.036850289
12.15282683,-3.482728004,-2.046010017,-0.603280187,4.084054153
12.16276083,-3.410886526,-1.76638639,-0.489868671,3.872239544
12.17269483,-3.276535749,-1.10586679,-0.315419912,3.472480035
12.18262883,-3.210181952,-0.243216977,-0.209079087,3.226164398
12.19256283,-3.168514729,0.523688078,-0.139400795,3.214524439
12.20249683,-3.095913887,1.140774131,-0.056213222,3.299880049
12.21243083,-2.983849049,1.436704993,-0.004899742,3.311721666
12.22236483,-2.831646204,1.407611489,-0.046874091,3.162560278
12.23229883,-2.626497507,0.983454704,-0.208399147,2.812312663
12.24223283,-2.172288895,0.137097582,-0.427599937,2.218214709
12.25216683,-1.559689879,-0.898754716,-0.544171691,1.880562519
12.26210083,-1.080736876,-1.766367555,-0.586050928,2.152092522
12.27203433,-1.059655428,-1.884204507,-0.710652113,2.275548873
12.28196833,-1.412247658,-1.168963313,-0.964742422,2.071628976
12.29190233,-1.79535234,-0.136696354,-1.203726649,2.165856358
12.30183633,-1.927327633,0.16885078,-1.394167423,2.384702328
12.31177033,-1.943109393,-0.130023226,-1.511672258,2.465305898
12.32170433,-1.949017882,-0.837769985,-1.498206496,2.597143038
12.33163833,-1.946773887,-1.653738856,-1.366080165,2.896714654
12.34157233,-1.917991996,-2.217601538,-1.22978282,3.179436375
12.35150633,-1.84528482,-2.412931919,-1.148481131,3.24751065
12.36144033,-1.783361554,-2.566420794,-1.072984576,3.304268455
12.37137433,-1.714022994,-2.669605017,-0.943607211,3.309842948
12.38130833,-1.586295366,-2.660514832,-0.841186821,3.20971454
12.39124333,-1.343348622,-2.533783913,-0.766842604,2.9686182
12.40117733,-0.989568591,-2.381244183,-0.719289482,2.677115465
12.41111133,-0.540557384,-2.201328278,-0.740443468,2.384597451
12.42104533,-0.101489231,-1.976737618,-0.744902134,2.114868995
12.43097933,0.287213534,-1.652107835,-0.708454967,1.820401151
12.44091333,0.624856293,-1.282995582,-0.67644006,1.579270149
12.45084733,0.953637838,-0.885882437,-0.656470716,1.457795123
12.46078133,1.313981652,-0.486190677,-0.651568353,1.54514416
12.47071533,1.71587944,-0.176307335,-0.656759202,1.845713732
12.48064933,2.104406118,0.020712523,-0.652282417,2.203276304
12.49058333,2.379199505,0.071198419,-0.606097162,2.456219304
12.50051733,2.316378355,-0.0362841,-0.481803983,2.366233357
12.51045133,1.884324193,-0.125061601,-0.261990428,1.906556334
12.52038533,1.3708601,0.020465773,-0.011249284,1.371059009
12.53031933,0.586980104,0.121818021,0.21994631,0.638562176
12.54025333,-0.153019965,0.015872411,0.268168956,0.309162792
12.55018733,-0.429474175,-0.312802941,0.049536224,0.533617451
12.56012133,-0.390455931,-0.755456269,-0.130105168,0.860289116
12.57005533,-0.32947287,-1.068617582,-0.264435381,1.149096158
12.57998933,-0.32605499,-1.27410233,-0.343590379,1.359302377
12.58992333,-0.316025108,-1.170858383,-0.341236413,1.259850591
12.59985733,-0.284497291,-0.779897869,-0.245369256,0.865670529
12.60979133,-0.3006109,-0.477526933,-0.014756973,0.564461383
12.61972533,-0.139382049,-0.329213917,0.296622217,0.464536219
12.62965933,0.091241732,-0.255764067,0.522825181,0.58914046
12.63959333,0.34181881,-0.171061441,0.516164601,0.642283435
12.64952733,0.783893108,-0.05783508,0.462210327,0.911850694
12.65946133,0.767064095,0.341934174,0.58885324,1.025697052
12.66939533,0.209854051,0.860690057,0.711911201,1.136505018
12.67932933,-0.056834891,1.161393166,0.609141171,1.31267561
12.68926333,0.129391655,1.087422967,0.337084293,1.145799603
12.69919733,0.42443499,0.956091583,0.092837013,1.050178502
12.70913133,0.777729988,0.863536179,-0.05414528,1.163396054
12.71906533,1.283098221,1.172097206,-0.074941903,1.739473827
12.72899933,1.89704752,1.985512257,0.038410604,2.746365523
12.73893333,2.420702696,2.793106556,0.186045334,3.700791624
12.74886733,2.817102909,3.085918427,0.331084311,4.191488776
12.75880133,3.048394203,2.942508698,0.559224546,4.273616355
12.76873533,2.952100515,2.678924799,0.832779527,4.07247557
12.77866933,2.501394749,2.571119308,1.017658234,3.728707345
12.78860333,1.756187797,2.55092001,0.99656117,3.253386334
12.79853733,0.975068808,2.351278305,0.87943399,2.693078719
12.80847233,0.577931464,1.803314447,0.724068284,2.027368406
12.81840633,0.801482499,1.014086723,0.404502541,1.354388564
12.82834033,1.391070366,0.43457514,-0.020851921,1.457520881
12.83827433,1.893864274,0.277361006,-0.399816811,1.955378352
12.84820833,2.066842318,0.456339657,-0.5973441,2.199296029
12.85814233,1.947639585,0.901788533,-0.61659503,2.2330947
12.86807633,1.795244694,1.276688695,-0.513241589,2.261913894
12.87801033,1.74107945,1.360765457,-0.376132488,2.241543202
12.88794433,1.739138842,1.348772883,-0.275743634,2.218068248
12.89787833,1.756351948,1.34756279,-0.201050758,2.222862804
12.90781233,1.777165651,1.288501263,-0.088083953,2.196886897
12.91774633,1.730268478,1.259600401,0.034449153,2.140469323
12.92768033,1.680591226,1.376573324,0.135982096,2.176656177
12.93761433,1.655035496,1.491368175,0.233413577,2.240045406
12.94754833,1.625440001,1.516435385,0.31618017,2.245351058
12.95748233,1.57107985,1.44190383,0.395387381,2.168803756
12.96741633,1.449603796,1.287326217,0.515901268,2.006169004
12.97735033,1.283566594,1.076792955,0.651563764,1.797654474
12.98728433,1.156967998,0.791354835,0.750117183,1.589809174
12.99721833,1.105774283,0.523150027,0.808766127,1.466466967
13.00715233,1.144479871,0.390583605,0.826976895,1.465018946
13.01708633,1.249895692,0.344411045,0.800833225,1.523874031
13.02702033,1.357591152,0.363379121,0.762913346,1.599104404
13.03695433,1.414209604,0.388509512,0.718700111,1.63323553
13.04688833,1.390341878,0.442521006,0.681240141,1.610268148
13.05682233,1.223280191,0.53653723,0.64501822,1.483352665
13.06675633,0.934608221,0.657995939,0.583433747,1.283295025
13.07669033,0.6271649,0.806192338,0.488641173,1.132277393
13.08662433,0.398091197,0.958119094,0.411845952,1.116282172
13.09655833,0.265308917,1.042158842,0.362715155,1.134921212
13.10649233,0.161995813,0.996700108,0.342704028,1.066348817
13.11642633,0.069493316,0.824916422,0.350868493,0.899124643
13.12636033,0.006121282,0.630391479,0.332329869,0.712652811
13.13629433,0.010633742,0.467384726,0.267491221,0.538621492
13.14622833,0.062917799,0.423613608,0.159571916,0.457023341
13.15616233,0.110484518,0.52092576,0.004147708,0.532529511
13.16609633,0.046547551,0.67070061,-0.13246344,0.685239042
13.17603033,-0.175992578,0.757968724,-0.230217427,0.811473991
13.18596433,-0.476175636,0.684652328,-0.276832312,0.878708243
13.19589833,-0.727629721,0.296322197,-0.274611503,0.83226398
13.20583233,-0.847438157,-0.248502776,-0.323496699,0.940507934
13.21576633,-0.954831719,-0.699366868,-0.470942885,1.273815068
13.22570033,-1.188468099,-1.018094778,-0.642714143,1.691760878
13.23563433,-1.584394932,-1.239553213,-0.690756261,2.126956436
13.24556833,-2.129992723,-1.422618389,-0.602526963,2.631302116
13.25550233,-2.688070059,-1.63362968,-0.431244969,3.174970676
13.26543633,-3.127377272,-1.787202716,-0.320384294,3.616245047
13.27537088,-3.397992611,-1.911107183,-0.327505589,3.912281222
13.28530487,-3.474672318,-2.08635354,-0.387078613,4.071369384
13.29523887,-3.412774086,-1.957766771,-0.333175451,3.948529293
13.30517288,-3.293130398,-1.493214607,-0.219489008,3.622509228
13.31510688,-3.13962388,-0.862293899,-0.139973134,3.258892658
13.32504188,-2.989191294,-0.011698347,-0.055620667,2.98973161
13.33497587,-2.869219542,0.769845665,0.031477749,2.970870912
13.34490987,-2.797791958,1.259610772,0.103109173,3.069998475
13.35484388,-2.742729425,1.36131072,0.145313889,3.065427818
13.36477788,-2.6816926,1.058408976,0.126796886,2.885789703
13.37471187,-2.439060688,0.308833212,-0.0414856,2.458885123
13.38464587,-1.933674455,-0.622920215,-0.262931466,2.048477348
13.39457988,-1.396319389,-1.502942681,-0.318618149,2.076068897
13.40451388,-1.157783031,-1.896778584,-0.328665197,2.246386288
13.41444787,-1.406035185,-1.464120865,-0.467001766,2.082948751
13.42438187,-1.819860101,-0.371634454,-0.708018422,1.987785964
13.43431588,-2.126388311,0.580538869,-0.877639174,2.372509884
13.44424988,-2.212240934,0.555171669,-1.021558642,2.499161378
13.45418388,-2.289437294,-0.170092866,-1.133673549,2.560404347
13.46411787,-2.322696924,-0.960056603,-1.11045301,2.747678214
13.47405188,-2.254460573,-1.54126966,-1.003953695,2.909643907
13.48398588,-2.120898485,-1.854985714,-0.920193791,2.964108466
13.49391988,-1.957409978,-2.019904137,-0.911106825,2.956616679
13.50385387,-1.766971946,-2.152792692,-0.926363349,2.935107372
13.51378787,-1.582304955,-2.221193552,-0.929637194,2.881252345
13.52372188,-1.365177035,-2.225255013,-0.901142597,2.761797637
13.53365588,-1.114855289,-2.175726891,-0.825160503,2.580228609
13.54358987,-0.789982259,-2.053201437,-0.774296105,2.332218379
13.55352387,-0.412078381,-1.887362361,-0.74155736,2.06926378
13.56345788,-0.023838727,-1.646604538,-0.688487768,1.784906215
13.57339188,0.359349936,-1.334917426,-0.614226341,1.512749454
13.58332587,0.726251662,-0.96767509,-0.551436901,1.329631231
13.59325987,1.096477389,-0.588681996,-0.516603053,1.347474627
13.60319388,1.475230336,-0.230836973,-0.474294424,1.566698903
13.61312788,1.830155373,0.027210012,-0.408613145,1.875412961
13.62306187,2.100462198,0.134730995,-0.341291249,2.13226959
13.63299587,2.143072128,0.146786332,-0.212518364,2.158580188
13.64292988,1.952335238,0.001850652,-0.014394817,1.952389182
13.65286388,1.705006599,-0.146226689,0.202906609,1.723252982
13.66279788,1.110898495,-0.107660525,0.343469948,1.16775762
13.67273187,0.196122289,-0.225210309,0.355675489,0.464422963
13.68266588,-0.443486094,-0.477608144,0.224613845,0.689377136
13.69259988,-0.650043547,-0.820217967,0.047852121,1.047665954
13.70253388,-0.658691287,-1.143223286,-0.131634727,1.325956784
13.71246787,-0.657985032,-1.419797063,-0.214353308,1.57946679
13.72240187,-0.637691736,-1.476146817,-0.257536888,1.628491764
13.73233588,-0.57980448,-1.084554791,-0.315541357,1.269645099
13.74226988,-0.488550276,-0.634055972,-0.262500525,0.842386415
13.75220387,-0.173185945,-0.34255594,-0.022263696,0.384491373
13.76213787,0.348252743,-0.46985504,0.261714488,0.640732554
13.77207188,0.668103755,-0.5903005,0.394019008,0.974714464
13.78200588,0.846392095,-0.436952621,0.330188215,1.008132644
13.79193987,0.747046888,-0.037881128,0.320709497,0.813860316
13.80187387,0.221906811,0.484775543,0.478745013,0.716551986
13.81180788,0.071016617,0.896168649,0.514102221,1.035597751
13.82174188,0.198926479,0.964339375,0.250532806,1.016016172
13.83167588,0.489474952,0.915748656,-0.034634765,1.038932575
13.84160987,0.845220089,0.78689748,-0.119340368,1.16096803
13.85154388,1.293818355,0.993162513,-0.077319421,1.63288579
13.86147788,1.739698529,1.628611684,-0.027179096,2.38320492
13.87141188,2.082162857,2.276255369,0.073463626,3.0857961
13.88134587,2.345940351,2.635383368,0.214759395,3.534798894
13.89127987,2.520288229,2.643876076,0.441987485,3.679305151
13.90121488,2.493623018,2.470650434,0.710645616,3.581520141
13.91114888,2.247773886,2.254225254,0.906878471,3.310052492
13.92108287,1.787294984,1.957944393,0.936515093,2.811588541
13.93101687,1.205737829,1.661048174,0.836932302,2.216605609
13.94095088,0.871667862,1.227744579,0.574220836,1.611487258
13.95088488,0.971822202,0.640309334,0.190821514,1.179341887
13.96081887,1.398121238,0.142073378,-0.195839822,1.418901362
13.97075287,1.858834743,-0.013623013,-0.548290551,1.938059524
13.98068688,2.057962894,0.159874782,-0.757886946,2.198900599
13.99062088,2.081831694,0.577259481,-0.780305207,2.296982352
14.00055488,2.040202379,0.951863408,-0.671052694,2.349208678
14.01048887,1.939831376,1.169759274,-0.53627491,2.327847354
14.02042288,1.818663478,1.194049954,-0.434652478,2.218606526
14.03035688,1.714366317,1.184497476,-0.310300946,2.106744601
14.04029088,1.635206938,1.152089357,-0.151088402,2.006000828
14.05022487,1.590482116,1.116183758,-0.005399646,1.943071974
14.06015887,1.605953097,1.084073544,0.121542662,1.941410162
14.07009288,1.679594755,1.103725314,0.209134027,2.020639788
14.08002688,1.725709558,1.16729784,0.270940185,2.100967946
14.08996087,1.665525913,1.21061337,0.3456195,2.087825217
14.09989487,1.480675936,1.258247256,0.422987044,1.988593831
14.10982888,1.268731117,1.251778126,0.517052054,1.855793618
14.11976288,1.13133955,1.076217532,0.610593379,1.676603002
14.12969687,1.119863987,0.706503451,0.681506455,1.489192239
14.13963087,1.171044827,0.327243209,0.728831828,1.417614171
14.14956488,1.202493548,0.098505639,0.756068528,1.423844694
14.15949888,1.218406916,0.011527765,0.765559316,1.439002907
14.16943288,1.238492489,0.019182757,0.746525705,1.446213073
14.17936687,1.265660167,0.123421691,0.712137222,1.457486876
14.18930088,1.278218031,0.295279741,0.670778334,1.473422897
14.19923488,1.187727332,0.467458546,0.605157673,1.412596729
14.20916888,0.982362747,0.650457621,0.516931653,1.286604064
14.21910287,0.708164573,0.864484191,0.450035185,1.204724718
14.22903687,0.432889849,1.022564888,0.436083972,1.192980219
14.23897088,0.20351775,1.026090264,0.466962904,1.145571935
14.24890488,0.031174477,0.829517782,0.510829449,0.974688834
14.25883887,-0.057074092,0.52329874,0.514383972,0.735995852
14.26877287,-0.05925256,0.309067398,0.436132282,0.537814922
14.27870712,-0.000328304,0.23338525,0.288560599,0.371128013
14.28864112,0.053126402,0.261363387,0.098311566,0.284250591
14.29857513,0.007872673,0.319395393,-0.090545587,0.332075141
14.30850913,-0.209035397,0.366432697,-0.231594056,0.481253078
14.31844312,-0.527833104,0.330083191,-0.318010688,0.69906616
14.32837712,-0.844934881,0.079512507,-0.347599208,0.917094543
14.33831113,-1.111304879,-0.313287467,-0.45607543,1.241431581
14.34824513,-1.304718018,-0.60032618,-0.619351447,1.564057813
14.35817913,-1.542733312,-0.745651305,-0.79626739,1.889461218
14.36811312,-1.932440281,-0.966283262,-0.836963713,2.317010366
14.37804713,-2.388454437,-1.436355114,-0.720678926,2.878751244
14.38798113,-2.800278187,-1.922482729,-0.582295656,3.446239399
14.39791513,-3.128292799,-2.163774252,-0.509668887,3.837694259
14.40784912,-3.334321499,-2.128849745,-0.519372404,3.989918394
14.41778312,-3.392991543,-1.785592198,-0.477593362,3.863783965
14.42771713,-3.318917274,-1.214643478,-0.350933433,3.551580624
14.43765113,-3.242206097,-0.735127449,-0.251777589,3.3340223
14.44758512,-3.178346395,-0.287151784,-0.221883595,3.198995825
14.45751912,-3.071872711,0.297246248,-0.15188089,3.089955516
14.46745313,-2.951743364,0.92489177,-0.031870589,3.093417109
14.47738713,-2.828196049,1.24276638,0.049548022,3.08959806
14.48732112,-2.699333906,1.148325324,0.038674336,2.933692263
14.49725512,-2.481386662,0.548837483,-0.145447314,2.545517092
14.50718913,-2.121071339,-0.174330592,-0.361930609,2.158779411
14.51712313,-1.616735816,-0.980845273,-0.404411107,1.933763298
14.52705713,-1.268311024,-1.608571291,-0.391223401,2.085466423
14.53699112,-1.280451894,-1.552745104,-0.500841737,2.073985741
14.54692513,-1.521666169,-0.853098035,-0.72820276,1.890376536
14.55685913,-1.790636063,-0.0087645,-0.899396718,2.003838512
14.56679313,-1.887942553,0.415171862,-1.008226514,2.180187024
14.57672712,-1.893015981,-0.081333898,-1.086653352,2.184248203
14.58666112,-2.008881807,-0.910853684,-1.071541429,2.452236037
14.59659513,-2.121030569,-1.594285488,-0.983307719,2.829736907
14.60652913,-2.144055843,-1.953528881,-0.848249495,3.022048602
14.61646312,-2.04540205,-2.093536139,-0.78408134,3.030073705
14.62639712,-1.881713033,-2.243876696,-0.791638315,3.033565194
14.63633113,-1.697335958,-2.383982658,-0.817207992,3.038445585
14.64626513,-1.493797302,-2.421349049,-0.809905052,2.958091917
14.65619912,-1.262224197,-2.296227217,-0.739501834,2.722633342
14.66613312,-0.964544356,-2.030197382,-0.661260068,2.342928104
14.67606813,-0.59403342,-1.788809776,-0.621909857,1.984814346
14.68600213,-0.177074537,-1.537799835,-0.596232474,1.658817919
14.69593613,0.228374526,-1.261720181,-0.562437654,1.400153153
14.70587012,0.600993097,-0.970739245,-0.526933432,1.257452276
14.71580413,0.953985989,-0.631790519,-0.498303145,1.248020253
14.72573813,1.304637432,-0.293671817,-0.46451506,1.415661049
14.73567213,1.662031174,-0.022956233,-0.399943203,1.709628374
14.74560612,1.99280405,0.129642904,-0.322183967,2.022839038
14.75554012,2.166832447,0.150726423,-0.228921503,2.184098524
14.76547413,1.993208885,0.041874502,-0.098340847,1.996072658
14.77540813,1.666094303,-0.124463506,0.041309875,1.671247407
14.78534212,1.436015368,-0.108269088,0.107598618,1.444105188
14.79527612,0.852549016,-0.000245695,0.15301837,0.866172331
14.80521013,-0.000804713,-0.059864283,0.158375859,0.169314183
14.81514413,-0.467940688,-0.24560222,0.079091683,0.534363577
14.82507812,-0.534167886,-0.53805244,-0.096266285,0.764266286
14.83501212,-0.452451259,-0.819540143,-0.243180066,0.967209766
14.84494613,-0.387325525,-1.030950427,-0.25874117,1.13129432
14.85488013,-0.349629492,-1.124896049,-0.187199309,1.192759609
14.86481413,-0.281283975,-0.958816051,-0.141084552,1.009135147
14.87474812,-0.257410586,-0.604750752,-0.095303625,0.664128348
14.88468213,-0.144403338,-0.299478948,0.085566022,0.343309639
14.89461613,0.158098429,-0.356865704,0.397356033,0.556991976
14.90455013,0.337815225,-0.535151839,0.661757052,0.915657694
14.91448412,0.361804128,-0.712288857,0.722551227,1.077189824
14.92441812,0.372414142,-0.684207976,0.710975289,1.054665212
14.93435213,0.175814316,-0.407321155,0.599664927,0.745935132
14.94428613,0.252562612,0.008448094,0.501688898,0.561739257
14.95422012,0.448967844,0.533501863,0.240751684,0.73767048
14.96415412,0.671867788,0.868755758,-0.131771281,1.106122309
14.97408813,0.884773493,1.007589817,-0.312053114,1.376749258
14.98402213,1.122067332,1.084971189,-0.318222046,1.592941572
14.99395612,1.476612091,1.390439987,-0.20243296,2.038304621
15.00389012,1.880019188,1.85314846,-0.033187218,2.640025143
15.01382413,2.226952314,2.237741947,0.121412858,3.159358592
15.02375813,2.421317816,2.492521048,0.332020432,3.49079915
15.03369212,2.407981873,2.58267808,0.618430972,3.584837462
15.04362612,2.186762333,2.50727129,0.838206232,3.430878679
15.05356013,1.77506125,2.339112759,0.886941552,3.0674022
15.06349413,1.306432605,2.107104301,0.791522861,2.602530139
15.07342813,1.013173223,1.592250705,0.642344534,1.993586915
15.08336212,1.088180423,0.752560556,0.358670205,1.370813021
15.09329613,1.400847673,-0.033905946,-0.034870565,1.401691754
15.10323013,1.75901413,-0.389923155,-0.390148252,1.8434713
15.11316413,1.971455336,-0.174304903,-0.593997955,2.066361999
15.12309812,1.990503669,0.369178087,-0.647189021,2.125382541
15.13303212,1.982348919,0.971868217,-0.595247865,2.286603395
15.14296613,1.969246984,1.4027493,-0.500157595,2.468966768
15.15290013,1.922814727,1.551195145,-0.455438316,2.512139907
15.16283412,1.885484934,1.496963024,-0.410838097,2.442281653
15.17276812,1.846046686,1.42073679,-0.273874909,2.345503967
15.18270213,1.761873245,1.21381104,-0.086217955,2.141253864
15.19263613,1.674648762,1.022708654,0.094674185,1.964521486
15.20257012,1.629185915,0.875444651,0.273104668,1.869555092
15.21250412,1.61421442,0.837024927,0.388815016,1.859428955
15.22243813,1.593644619,0.900425732,0.43327567,1.881009696
15.23237213,1.502690554,1.041653752,0.454714924,1.884114408
15.24230613,1.359015942,1.211166024,0.475946188,1.881587692
15.25224012,1.220739126,1.298420906,0.51124382,1.85404183
15.26217413,1.148518205,1.154625416,0.549209833,1.718687103
15.27210808,1.167725682,0.775316179,0.575869381,1.51536266
15.28204208,1.240098953,0.311229974,0.601196051,1.412850382
15.29197608,1.30274415,-0.032979656,0.643755794,1.453496302
15.30191008,1.325653195,-0.140470698,0.681770563,1.497297403
15.31184408,1.30273509,-0.064636037,0.701723993,1.481118866
15.32177808,1.262481689,0.093524039,0.691105962,1.442301706
15.33171208,1.213253856,0.272506773,0.656092584,1.405952467
15.34164608,1.095549583,0.444984555,0.594485998,1.323500565
15.35158008,0.898019969,0.609517395,0.504416525,1.19682386
15.36151408,0.704818308,0.803967834,0.429891378,1.152362669
15.37144808,0.54712671,0.973004818,0.384711862,1.180715558
15.38138208,0.337557822,1.016418934,0.393200964,1.140903033
15.39131608,0.109765545,0.871988297,0.428615034,0.977815377
15.40125008,-0.022091819,0.589183986,0.448070496,0.740535609
15.41118408,-0.032591272,0.356286287,0.405857831,0.541038528
15.42111808,0.027522665,0.2966232,0.294789106,0.419098362
15.43105208,0.070601299,0.384377897,0.115930133,0.407640413
15.44098608,-0.002827917,0.468243241,-0.077738136,0.474660877
15.45092008,-0.211294621,0.508789361,-0.2809861,0.618437724
15.46085408,-0.482170343,0.411583692,-0.440989882,0.772244425
15.47078808,-0.792515993,-0.009783075,-0.539734185,0.958900567
15.48072208,-0.931681871,-0.416275203,-0.628257394,1.198341983
15.49065608,-0.918407977,-0.536957204,-0.846590042,1.359599555
15.50059008,-1.138082862,-0.88192606,-0.994756877,1.750019263
15.51052408,-1.609667778,-1.220416903,-0.912452698,2.21653281
15.52045808,-2.18100071,-1.452874422,-0.665598691,2.703817634
15.53039208,-2.695339441,-1.650786519,-0.421616524,3.18868489
15.54032608,-3.091686249,-1.748089433,-0.270082414,3.561921537
15.55026008,-3.372651577,-1.740891337,-0.239224583,3.802986946
15.56019408,-3.534326553,-1.506893873,-0.21981813,3.848442976
15.57012808,-3.573913097,-1.133930326,-0.179914147,3.753800995
15.58006208,-3.485208988,-0.723520219,-0.180934668,3.56411287
15.58999608,-3.286426306,-0.298264593,-0.182921588,3.304999234
15.59993008,-3.094748974,0.139648572,-0.155510992,3.10179893
15.60986408,-2.89111042,0.552173853,-0.078950979,2.944426715
15.61979808,-2.695430517,0.780051231,0.005776158,2.806039729
15.62973208,-2.547385454,0.764550388,0.033911273,2.659860884
15.63966608,-2.418004513,0.558350861,-0.021052908,2.48172213
15.64960008,-2.064719915,0.010850587,-0.208670735,2.075266137
15.65953408,-1.599381804,-0.650223494,-0.349879533,1.761598262
15.66946808,-1.154386878,-1.231811523,-0.425701797,1.741031508
15.67940208,-1.115311384,-1.282107711,-0.533436775,1.781087999
15.68933608,-1.46205771,-0.459443986,-0.689094365,1.680342991
15.69927008,-1.851106405,0.477636904,-0.849505365,2.091982624
15.70920408,-2.046793461,0.737750351,-0.947624564,2.373105848
15.71913808,-2.124585152,0.318993866,-0.968366325,2.356555217
15.72907208,-2.211035967,-0.477281302,-0.924954355,2.443771275
15.73900608,-2.291899681,-1.205546379,-0.813123643,2.714280067
15.74894008,-2.273295879,-1.632544279,-0.707675695,2.886846007
15.75887408,-2.100895166,-1.728757024,-0.67874819,2.804114914
15.76880808,-1.85224402,-1.841681838,-0.712717891,2.707501928
15.77874208,-1.616704941,-2.039789677,-0.733899891,2.704271777
15.78867608,-1.403864264,-2.107948303,-0.708776236,2.629951459
15.79861008,-1.167376399,-2.053999186,-0.651851177,2.450834607
15.80854408,-0.895784259,-1.946319818,-0.599645078,2.224896513
15.81847808,-0.584471643,-1.784418225,-0.531589866,1.951497704
15.82841208,-0.23618558,-1.600178957,-0.486588836,1.689119598
15.83834708,0.107049003,-1.375139952,-0.434008181,1.445971119
15.84828108,0.428847194,-1.104755759,-0.385598272,1.246226797
15.85821508,0.752780795,-0.810390472,-0.357006043,1.162267163
15.86814808,1.125228524,-0.499205768,-0.35535714,1.281258884
15.87808308,1.51915288,-0.189732358,-0.339075118,1.568054774
15.88801708,1.868539095,-0.035613962,-0.297083348,1.892343843
15.89795108,2.028264761,-0.021104261,-0.205927864,2.038801024
15.90788508,1.948257446,-0.098617092,-0.030370012,1.950988146
15.91781908,1.823875785,-0.170859605,0.156572446,1.838540403
15.92775308,1.558351874,-0.139093369,0.260980815,1.586164719
15.93768708,0.79089433,-0.109773569,0.283252835,0.847228568
15.94762108,-0.067523435,-0.218817234,0.285332233,0.365861831
15.95755508,-0.413836628,-0.445492983,0.209240139,0.643044468
15.96748908,-0.439927965,-0.702281654,0.023546789,0.829029907
15.97742308,-0.492091566,-0.940974116,-0.129723996,1.069773206
15.98735708,-0.628227651,-1.235933661,-0.21506837,1.403016893
15.99729108,-0.688926935,-1.298867345,-0.284169406,1.497474191
16.00722508,-0.66858536,-0.990427196,-0.318621486,1.236718265
16.01715908,-0.463325381,-0.573046982,-0.188433111,0.760631507
16.02709308,-0.045269649,-0.407592148,0.119664684,0.427200581
16.03702708,0.27385962,-0.509669781,0.368335485,0.685881482
16.04696108,0.417101145,-0.453681618,0.429774582,0.751336521
16.05689508,0.551549196,-0.201017141,0.512102425,0.779014314
16.06682908,0.277032763,0.165039495,0.683731675,0.755959119
16.07676308,-0.02867494,0.455780774,0.661106527,0.803504951
16.08669708,0.092992619,0.734158278,0.421572864,0.851680505
16.09663108,0.515749693,1.014001846,0.123401634,1.144301295
16.10656508,0.897921681,1.005818248,-0.012637433,1.348366938
16.11649908,1.237093925,0.857804537,-0.017837256,1.505505952
16.12643308,1.654859066,1.309592962,0.04443552,2.11082135
16.13636708,2.113756418,2.117028713,0.062079493,2.992261792
16.14630108,2.481667042,2.672697306,0.111831263,3.648902359
16.15623508,2.656864405,2.827634811,0.242215365,3.887559051
16.16616908,2.574305773,2.703478336,0.446067512,3.759630507
16.17610308,2.244136572,2.569507837,0.638192475,3.470707293
16.18603708,1.693687677,2.475207806,0.759587407,3.093897972
16.19597108,1.121915221,2.314457893,0.80089277,2.693851951
16.20590508,0.797529876,1.880672336,0.709016144,2.162333515
16.21583908,0.906546414,1.093786478,0.380049407,1.470589274
16.22577308,1.322176576,0.250098169,-0.08213266,1.348126762
16.23570708,1.77280879,-0.254955679,-0.482902437,1.855006245
16.24564108,2.020030737,-0.302393109,-0.709055781,2.162111438
16.25557508,2.047905445,0.122201055,-0.739302874,2.180692218
16.26550908,1.991960764,0.720134616,-0.63819319,2.212191696
16.27544313,1.954282284,1.08433044,-0.501289666,2.290476605
16.28537713,1.907078385,1.142928004,-0.414634705,2.261670694
16.29531112,1.840012789,1.084863901,-0.355681628,2.165429788
16.30524512,1.764941812,1.045345426,-0.240646854,2.065351681
16.31517913,1.677250624,1.043054819,-0.056418158,1.975934214
16.32511313,1.601819396,1.053135037,0.098993652,1.919562067
16.33504713,1.54983449,0.975046694,0.234039351,1.845935378
16.34498112,1.525307536,0.912005484,0.339285225,1.809262708
16.35491513,1.466969132,0.993848681,0.429885715,1.823330844
16.36484913,1.389270425,1.087373137,0.491728961,1.831461172
16.37478313,1.289970636,1.069375038,0.521716416,1.75492884
16.38471712,1.212844491,0.877563179,0.539142132,1.591157795
16.39465112,1.164788365,0.516830027,0.563903153,1.393496315
16.40458513,1.15621984,0.165362597,0.590318382,1.308688236
16.41451913,1.158374071,-0.013652429,0.611606598,1.309992179
16.42445312,1.158547282,-0.026459513,0.629256904,1.318672121
16.43438712,1.158401251,0.053217471,0.625670671,1.31764538
16.44432113,1.173694611,0.125337288,0.605962396,1.326822859
16.45425513,1.211456895,0.17145738,0.585638523,1.35646523
16.46418912,1.206342697,0.232291073,0.564525127,1.352002391
16.47412312,1.102473021,0.324326187,0.533538699,1.267003465
16.48405713,0.947095752,0.458622664,0.489123285,1.160416606
16.49399113,0.822396219,0.606300771,0.434019834,1.110094312
16.50392512,0.701178312,0.730892718,0.398239017,1.088324173
16.51385912,0.51759094,0.833586872,0.415917069,1.065717815
16.52379313,0.300211668,0.832644939,0.467867076,1.001161446
16.53372713,0.181056246,0.630675554,0.507548988,0.829541436
16.54366113,0.187213704,0.312787056,0.493090004,0.613206707
16.55359512,0.2487804,0.096811347,0.413387179,0.492090524
16.56352913,0.326125324,0.124730811,0.265111387,0.43840569
16.57346313,0.357261688,0.345695406,0.075547062,0.502840517
16.58339713,0.237896234,0.605705321,-0.119277403,0.661589489
16.59333112,-0.022507126,0.778447807,-0.28351295,0.828774488
16.60326512,-0.321384966,0.74988538,-0.398929715,0.908163695
16.61319913,-0.599384129,0.440406054,-0.408243865,0.848458532
16.62313313,-0.796980441,-0.003525816,-0.401640892,0.892471658
16.63306712,-0.916933477,-0.452336878,-0.509226203,1.142228952
16.64300112,-1.147060037,-0.899371266,-0.634068489,1.589546555
16.65293513,-1.566370964,-1.164076686,-0.665026367,2.061759587
16.66286913,-2.161852598,-1.289353013,-0.555613637,2.577740166
16.67280312,-2.691111326,-1.295125961,-0.354346335,3.007489443
16.68273712,-3.145969868,-1.324595094,-0.267791331,3.423943745
16.69267113,-3.42350173,-1.318373919,-0.287213475,3.679805085
16.70260513,-3.567848921,-1.395682335,-0.349707097,3.84704694
16.71253913,-3.586662292,-1.432487726,-0.391604483,3.881948165
16.72247312,-3.466070175,-1.209822893,-0.362660497,3.689015658
16.73240713,-3.295548677,-0.803131402,-0.280752033,3.403598513
16.74234113,-3.088501215,-0.221915215,-0.186893865,3.102098553
16.75227513,-2.866859674,0.43061012,-0.098904103,2.900705344
16.76220912,-2.687265635,0.920986235,-0.04800744,2.841111921
16.77214312,-2.577483892,1.070896387,-0.056413442,2.791670605
16.78207713,-2.418075085,0.836482584,-0.16724591,2.56412976
16.79201113,-2.153711557,0.319298267,-0.310144991,2.199230495
16.80194512,-1.760556459,-0.307236373,-0.372069716,1.825483254
16.81187912,-1.386889458,-0.803716421,-0.429601729,1.659512006
16.82181313,-1.272392392,-0.950163484,-0.603422523,1.698797159
16.83174713,-1.436029553,-0.5159958,-0.838018,1.740892505
16.84168112,-1.654385328,0.197325528,-1.052496433,1.970704676
16.85161512,-1.712072611,0.501961827,-1.211716175,2.156713794
16.86154913,-1.728886843,0.244847342,-1.296209097,2.174662723
16.87148313,-1.781408906,-0.481228083,-1.312128186,2.264216981
16.88141712,-1.861911535,-1.328646064,-1.225518823,2.594978095
16.89135112,-1.919153333,-1.886646986,-1.091333508,2.904065287
16.90128513,-1.885530233,-2.214185953,-0.99595803,3.074048811
16.91121913,-1.785005689,-2.363286495,-0.914687157,3.099680784
16.92115313,-1.656523347,-2.379814625,-0.854347646,3.022829328
16.93108712,-1.544630885,-2.422458887,-0.766847908,2.973591658
16.94102113,-1.385410309,-2.359299898,-0.67339021,2.817643006
16.95095513,-1.133850455,-2.190199137,-0.604756534,2.539354166
16.96088913,-0.810084522,-2.007453442,-0.555215776,2.234808898
16.97082312,-0.451937258,-1.786898255,-0.555665076,1.925101643
16.98075712,-0.063265473,-1.463750243,-0.55069083,1.565192539
16.99069113,0.319170862,-1.178998113,-0.541221201,1.335974168
17.00062513,0.690242052,-0.820236504,-0.491882771,1.179478984
17.01055912,1.061123252,-0.485662758,-0.439574033,1.247026945
17.02049312,1.433445454,-0.189434171,-0.39936921,1.500048979
17.03042713,1.797650814,0.044838257,-0.352098107,1.832356951
17.04036113,2.129361153,0.155479923,-0.298858196,2.155845344
17.05029512,2.306112289,0.165798351,-0.233482912,2.323823843
17.06022912,2.19455266,0.096759066,-0.137136593,2.200961185
17.07016313,1.822314501,0.159501806,0.018365385,1.829373733
17.08009713,1.347802997,0.353094369,0.192956671,1.40658481
17.09003113,0.512199163,0.299248964,0.378394693,0.703619549
17.09996512,-0.283365607,-0.121853769,0.343831658,0.46191408
17.10989913,-0.62971741,-0.712113619,0.073864363,0.95347038
17.11983313,-0.638855517,-1.212528944,-0.246457249,1.392517141
17.12976713,-0.56751579,-1.447962523,-0.413441479,1.609224501
17.13970112,-0.511991084,-1.4945786,-0.440233558,1.640032209
17.14963512,-0.44394359,-1.271181703,-0.392633259,1.402551143
17.15956913,-0.390171647,-0.905801654,-0.241316959,1.015354335
17.16950313,-0.176013023,-0.456632644,-0.048663076,0.491794724
17.17943712,0.336939007,-0.274227023,0.149293572,0.459365786
17.18937112,0.786607087,-0.271698862,0.234431893,0.864597764
17.19930513,0.985863507,-0.18727304,0.12083564,1.010741954
17.20923913,1.060368896,0.015187925,0.108634368,1.066027342
17.21917312,0.452984542,0.342141956,0.377945036,0.681981351
17.22910712,-0.230505109,0.417998642,0.71393019,0.858808352
17.23904113,-0.278530031,0.558643878,0.683089316,0.92535019
17.24897513,0.117353655,0.627737224,0.22353211,0.676603656
17.25890912,0.509048641,0.60446614,-0.1803146,0.810569669
17.26884312,0.830258906,0.559727967,-0.24545233,1.030956883
17.27877633,1.177906275,0.813092589,-0.095566928,1.434474046
17.28871033,1.616757631,1.431730986,0.058878034,2.160376235
17.29864433,2.04571104,2.106627226,0.263674438,2.948276808
17.30857833,2.315602541,2.552751541,0.519664109,3.485485095
17.31851233,2.393501997,2.730061769,0.826025963,3.723494053
17.32844633,2.230252504,2.678361416,1.062616348,3.643734295
17.33838033,1.931381583,2.424648046,1.136737227,3.301715387
17.34831433,1.555322766,2.07621932,1.067498684,2.805221741
17.35824833,1.158973455,1.593898058,0.951118767,2.188231569
17.36818233,1.049320698,0.900873005,0.679815888,1.541037229
17.37811633,1.280528545,0.061761409,0.297455281,1.316072745
17.38805033,1.709284425,-0.371686429,-0.107977949,1.752559067
17.39798433,1.985042214,-0.298605531,-0.427669406,2.052427581
17.40791833,1.986092567,0.175413966,-0.588672161,2.07891045
17.41785233,1.843922853,0.760785818,-0.647147655,2.097056661
17.42778633,1.723127484,1.146977425,-0.61961937,2.16070676
17.43772033,1.678124189,1.3234725,-0.561573744,2.209761372
17.44765433,1.689513803,1.332865953,-0.472492635,2.203233494
17.45758833,1.714230537,1.196090579,-0.330777347,2.116278021
17.46752233,1.686828494,1.041683197,-0.153341845,1.988468751
17.47745633,1.675967097,1.057277322,0.006149502,1.981600076
17.48739033,1.660182118,1.135624886,0.149088815,2.016947204
17.49732433,1.601017118,1.237330914,0.26942122,2.041281802
17.50725833,1.47592628,1.260871053,0.366953641,1.975552877
17.51719233,1.289138317,1.151899576,0.471178859,1.7918593
17.52712633,1.13265276,0.926823258,0.566738427,1.569425395
17.53706033,1.074911594,0.552381516,0.647792518,1.371202181
17.54699433,1.101988792,0.154703394,0.711321175,1.320715811
17.55692833,1.140466928,-0.067767829,0.747112989,1.365076962
17.56686233,1.151198864,-0.024264297,0.785232365,1.393713546
17.57679633,1.161359906,0.15840584,0.790937543,1.414012531
17.58673033,1.183627605,0.303109497,0.756407797,1.437011632
17.59666433,1.235189319,0.361119181,0.699576616,1.464754982
17.60659833,1.230125904,0.399270028,0.626224339,1.436935356
17.61653233,1.095607638,0.514174402,0.533429682,1.322602978
17.62646633,0.894479334,0.679369211,0.432390988,1.203577073
17.63640033,0.678842664,0.913038909,0.369988978,1.196394273
17.64633433,0.450003624,1.144041538,0.370729595,1.284046236
17.65626833,0.19961898,1.196052074,0.442990631,1.290979861
17.66620233,-0.011209899,0.951576054,0.538599193,1.093486049
17.67613633,-0.069120698,0.413776875,0.584499419,0.719464067
17.68607033,0.015020543,0.116628841,0.521942794,0.535025405
17.69600433,0.150739282,0.177410409,0.338235587,0.410609421
17.70593833,0.210280374,0.445039451,0.092134982,0.500766216
17.71587233,0.107871734,0.701305449,-0.154940933,0.726272908
17.72580633,-0.099659353,0.804116786,-0.35826236,0.885938886
17.73574033,-0.318676263,0.747548759,-0.501394153,0.954871617
17.74567433,-0.509853125,0.484527528,-0.539373517,0.886363879
17.75560833,-0.749635041,0.048927821,-0.575230539,0.94616954
17.76554233,-0.956624448,-0.30852592,-0.709032834,1.230059404
17.77547633,-1.179910541,-0.548869848,-0.823441625,1.53996854
17.78541033,-1.541347265,-0.872309446,-0.80318749,1.944681286
17.79534433,-2.027250051,-1.24808228,-0.626719058,2.461753222
17.80527833,-2.544703722,-1.580464244,-0.401256949,3.022315569
17.81521233,-3.029646397,-1.67464757,-0.245857328,3.470395885
17.82514633,-3.414913893,-1.550857663,-0.200217947,3.755913153
17.83508033,-3.661210537,-1.299467564,-0.182556227,3.889267967
17.84501433,-3.706795692,-0.87116158,-0.113493815,3.809479971
17.85494833,-3.561644077,-0.477983326,-0.088969596,3.594675532
17.86488233,-3.312490225,-0.256602228,-0.133256108,3.32508547
17.87481633,-3.092030525,0.085016161,-0.143047601,3.096504987
17.88475033,-2.920657158,0.519926608,-0.089387298,2.967920484
17.89468433,-2.780877352,0.863048375,-0.030915847,2.911887211
17.90461833,-2.641623497,0.951583326,-0.02378976,2.807890931
17.91455233,-2.431793928,0.543827772,-0.145872533,2.49612683
17.92448633,-2.109663248,-0.039926179,-0.284049034,2.129074206
17.93442033,-1.626868606,-0.78965044,-0.371317714,1.846111081
17.94435433,-1.286090612,-1.355674148,-0.407945752,1.912668606
17.95428833,-1.319132328,-1.412684321,-0.4958978,1.995420186
17.96422233,-1.639774799,-0.765955687,-0.674383104,1.93140935
17.97415633,-1.93785584,0.066412106,-0.881621242,2.130012168
17.98409033,-2.019659758,0.367711782,-1.057294488,2.309136013
17.99402433,-2.057210922,0.088463768,-1.141900659,2.354544485
18.00395833,-2.104724646,-0.580262899,-1.140477777,2.463180957
18.01389233,-2.10875845,-1.249211907,-1.039449096,2.662301074
18.02382633,-2.02395606,-1.673386574,-0.927017987,2.784956572
18.03376033,-1.865848064,-1.924428821,-0.903000176,2.828466829
18.04369433,-1.640577674,-2.068136692,-0.941988349,2.802860419
18.05362833,-1.39148736,-2.17558527,-0.977078557,2.761175628
18.06356233,-1.196843863,-2.25301075,-0.962140858,2.726574353
18.07349633,-1.043327928,-2.198482037,-0.905825615,2.596608649
18.08343033,-0.824696481,-2.015491247,-0.835420668,2.33243584
18.09336433,-0.529194891,-1.759794354,-0.786763489,1.998979788
18.10329833,-0.170497745,-1.507870555,-0.776289523,1.704514158
18.11323233,0.208141163,-1.235672116,-0.756599069,1.463779517
18.12316633,0.557239234,-0.929314852,-0.700030565,1.290032732
18.13310033,0.898436189,-0.599744856,-0.624134898,1.247567974
18.14303433,1.26742065,-0.26046291,-0.552667141,1.406995735
18.15296833,1.669313669,0.028124332,-0.495886624,1.741637921
18.16290233,2.090007544,0.21420525,-0.44884482,2.148366145
18.17283633,2.450102806,0.290181518,-0.411363125,2.501285408
18.18277033,2.608877897,0.242925048,-0.358962238,2.644638038
18.19270433,2.356158733,0.078360595,-0.234636873,2.369109289
18.20263833,1.652104259,-0.028109126,-0.000566846,1.652343465
18.21257233,0.665798664,-0.093285196,0.318785071,0.744052357
18.22250633,-0.215140671,-0.254447192,0.438748747,0.550934973
18.23244033,-0.745612562,-0.512926579,0.231697202,0.934192357
18.24237433,-0.88299334,-0.725455582,-0.002338454,1.142789792
18.25230833,-0.784567773,-0.788771749,-0.185112879,1.127818354
18.26224233,-0.654229224,-0.905306876,-0.350924224,1.170787866
18.27217633,-0.522061825,-1.051722407,-0.420287848,1.247120863
18.28211046,-0.321353734,-1.053975701,-0.366354853,1.161184257
18.29204446,-0.130672917,-0.815567255,-0.1347204,0.836884069
18.30197846,0.139757767,-0.582982779,0.271133661,0.657962473
18.31191246,0.61480248,-0.56070143,0.524519026,0.983609878
18.32184646,0.938698292,-0.569960713,0.422830731,1.176773353
18.33178046,0.780377388,-0.005414791,0.110958427,0.788244861
18.34171446,0.174349755,0.998658419,0.077526703,1.016723593
18.35164846,-0.333271056,1.114970684,0.522583842,1.275665746
18.36158246,-0.184001401,0.555969417,0.710353971,0.92063091
18.37151646,0.210307837,0.496388465,0.397108883,0.669571773
18.38145046,0.635290027,0.712556958,0.050629228,0.955978115
18.39138446,0.963503361,0.752306759,-0.088436782,1.225612194
18.40131846,1.25397718,0.821165204,-0.081924826,1.501160463
18.41125246,1.663094401,1.344920874,-0.015179075,2.13890756
18.42118646,2.110931635,2.061635256,0.192740306,2.956944558
18.43112046,2.360135078,2.519795895,0.491399467,3.487274348
18.44105446,2.417105675,2.634521008,0.83648473,3.671894264
18.45098846,2.287582397,2.442533493,1.091718078,3.520064126
18.46092246,1.961783051,2.146725178,1.167843699,3.133828431
18.47085646,1.468664169,1.90410614,1.073075891,2.633265369
18.48079146,0.941056013,1.563080907,0.934218347,2.04977371
18.49072546,0.72248441,0.930100322,0.726540983,1.383810728
18.50065946,0.974018633,0.103600055,0.358404785,1.043024094
18.51059346,1.509593844,-0.451823205,-0.079232551,1.577750164
18.52052746,1.963654757,-0.440250427,-0.486387819,2.07034624
18.53046146,2.077251196,0.048831072,-0.724689543,2.200575365
18.54039546,2.033497095,0.797074914,-0.764683604,2.314126157
18.55032946,1.947124839,1.303408384,-0.674960852,2.438388957
18.56026346,1.846539855,1.525912881,-0.571320474,2.462625964
18.57019746,1.769832373,1.586286664,-0.479243249,2.424517704
18.58013146,1.7460109,1.498749733,-0.370180696,2.330630509
18.59006546,1.727261662,1.310335755,-0.222838119,2.179465409
18.59999946,1.713749409,1.161551833,-0.0461712,2.070814206
18.60993346,1.681145072,1.056267262,0.117663659,1.988917801
18.61986746,1.638967514,1.035441041,0.25423643,1.955246487
18.62980146,1.570534587,1.064680219,0.37750563,1.934588679
18.63973546,1.462876916,1.163127184,0.461945683,1.925166884
18.64966946,1.307221174,1.183531642,0.55973345,1.850101587
18.65960346,1.152449489,1.051026821,0.639977992,1.685932689
18.66953746,1.066376448,0.743267894,0.704735577,1.478600055
18.67947146,1.078238487,0.320378631,0.750205338,1.352053531
18.68940546,1.136313796,-0.064617991,0.75161618,1.363932333
18.69933946,1.164147377,-0.207030803,0.733746648,1.391576448
18.70927346,1.156447291,-0.105829343,0.723588586,1.368265555
18.71920746,1.158410311,0.086814672,0.700252354,1.356393967
18.72914146,1.159860611,0.282730132,0.6696527,1.368812516
18.73907546,1.137718558,0.452003032,0.627003729,1.375443178
18.74900946,1.028436065,0.574784279,0.576969385,1.311850364
18.75894346,0.805452764,0.658376396,0.548562765,1.17606749
18.76887746,0.509284317,0.765073597,0.533582985,1.062741233
18.77881146,0.240515709,0.843139112,0.520939052,1.019857276
18.78874546,0.084305577,0.815451145,0.49601838,0.958176515
18.79867946,0.047136102,0.658627987,0.46578297,0.808063372
18.80861346,0.056993555,0.432878315,0.427908182,0.611340587
18.81854746,0.05765269,0.249710888,0.371485382,0.451310037
18.82848146,0.067344457,0.20840846,0.27708438,0.353192746
18.83841546,0.09502349,0.319562137,0.140995502,0.361979495
18.84834946,0.09789665,0.528224826,-0.019244011,0.537564464
18.85828346,-0.011596556,0.735836089,-0.164652601,0.754121813
18.86821746,-0.283458859,0.823748708,-0.256937593,0.908255352
18.87815146,-0.599164128,0.67661202,-0.280162483,0.946198972
18.88808546,-0.809765577,0.308689833,-0.248762637,0.901605542
18.89801946,-0.976650178,-0.308415204,-0.285427988,1.063219002
18.90795346,-1.163033247,-0.754972041,-0.419870675,1.448765164
18.91788746,-1.433518767,-0.986313164,-0.625043035,1.848910087
18.92782146,-1.82568109,-1.06703341,-0.736501098,2.239219866
18.93775546,-2.328314066,-1.21547997,-0.659859896,2.708108755
18.94768946,-2.869729042,-1.538406253,-0.489229411,3.292625698
18.95762346,-3.297252893,-1.813073397,-0.354725659,3.779542575
18.96755746,-3.515421629,-1.879480362,-0.336399466,4.000475004
18.97749146,-3.540925264,-1.70284164,-0.322716415,3.942330182
18.98742546,-3.401963949,-1.294348121,-0.248724461,3.648363966
18.99735946,-3.248598099,-0.88861537,-0.163276121,3.371896495
19.00729346,-3.120622635,-0.508144557,-0.107939832,3.163565635
19.01722746,-3.034193993,0.018858563,-0.053247292,3.034719774
19.02716146,-2.992804766,0.644469261,0.028651226,3.061542403
19.03709546,-2.979002714,1.18157959,0.121005654,3.20705938
19.04702946,-2.90724802,1.389877796,0.16922462,3.226838749
19.05696346,-2.720465899,0.937432647,0.06487345,2.878180543
19.06689746,-2.285202265,-0.122312345,-0.182056978,2.295703475
19.07683146,-1.763959169,-1.229107499,-0.302947164,2.171182668
19.08676546,-1.390240788,-1.945835471,-0.31344831,2.411906916
19.09669946,-1.442159414,-1.869184375,-0.345468551,2.386005558
19.10663346,-1.686507225,-1.280770659,-0.520508528,2.180735938
19.11656746,-1.890630841,-0.440628558,-0.772337615,2.089292679
19.12650146,-1.963056684,0.187814027,-0.96299535,2.194590098
19.13643546,-1.942916751,0.189431369,-1.084314346,2.233057847
19.14636946,-1.954901934,-0.375555813,-1.094516397,2.271706381
19.15630346,-1.940735579,-1.028872371,-1.010764241,2.417990342
19.16623746,-1.908052325,-1.50659585,-0.945813894,2.608650734
19.17617146,-1.817507029,-1.789538383,-0.946250975,2.720509205
19.18610546,-1.648123264,-1.983638406,-0.947213173,2.747425052
19.19603946,-1.465133309,-2.178398609,-0.952866554,2.792846359
19.20597446,-1.275998116,-2.313415289,-0.94523561,2.805981441
